timestamp,ax,ay,az,wx,wy,wz,latitude,longitude,speed,roadCondition
1763092679400,0.23827788,0.9753673,9.909944,-0.011801706,-0.004545093,0.004843215,28.40586467,76.94272941,16.06,Good
1763092679500,0.23319946,0.9631024,9.464037,-0.033918608,-0.001484574,0.005054577,28.40586467,76.94272941,16.06,Good
1763092679602,0.20703171,0.9188317,9.267086,-0.05151828,-0.0018168349,0.00580787,28.40596319,76.94289161,16.56,Good
1763092679701,0.22164127,0.9677137,9.293359,-0.030532591,0.0019115878,0.0059410282,28.40596319,76.94289161,16.56,Good
1763092679803,0.18145713,1.0455068,10.001403,0.002224264,-0.001839662,0.004344401,28.40596319,76.94289161,16.56,Good
1763092679905,0.26634833,1.112067,10.463513,0.04994807,0.0085428525,-8.5002696E-4,28.40596319,76.94289161,16.56,Good
1763092680006,0.26188532,1.1295881,11.27406,0.07471291,0.0027511169,-0.002148634,28.40596319,76.94289161,16.56,Good
1763092680106,0.2928469,1.0711983,10.349465,0.04715175,0.013230012,-0.0021816064,28.40596319,76.94289161,16.56,Good
1763092680207,0.29275563,0.99411815,9.959892,-0.0033683698,0.018769383,-6.103428E-4,28.40596319,76.94289161,16.56,Good
1763092680308,0.13493226,0.9184589,9.317411,-0.05101228,0.0031632723,0.00479587,28.40596319,76.94289161,16.56,Good
1763092680410,0.13808727,0.92482734,9.278909,-0.04837575,0.0016604898,0.005739389,28.40596319,76.94289161,16.56,Good
1763092680510,0.1484594,0.9374708,9.728797,-0.012369847,0.0025507452,0.0033311325,28.40596319,76.94289161,16.56,Good
1763092680611,0.19606954,0.89920306,9.958224,0.010416647,-0.0010533957,0.0027465057,28.40606319,76.9430429,16.37,Good
1763092680712,0.09661156,0.7824035,10.137386,-0.0022498427,-0.018062104,0.005621449,28.40606319,76.9430429,16.37,Good
1763092680811,0.21337688,0.81488216,9.812939,-0.013674794,-0.005065888,0.0025321848,28.40606319,76.9430429,16.37,Good
1763092680913,0.28763673,0.72457266,10.137765,0.012090633,0.004526556,9.7106636E-4,28.40606319,76.9430429,16.37,Good
1763092681012,0.29589674,0.79091424,10.0485,0.00904195,0.012910433,0.0013603949,28.40606319,76.9430429,16.37,Good
1763092681113,0.18488675,0.7125062,9.799487,-0.008987635,0.002843693,0.003757238,28.40606319,76.9430429,16.37,Good
1763092681213,0.16361082,0.7055286,9.6692095,-0.030585853,0.0032165353,0.003357764,28.40606319,76.9430429,16.37,Good
1763092681314,0.14564472,0.6995399,9.691487,-0.009037093,-0.0044267303,0.0032030472,28.40606319,76.9430429,16.37,Good
1763092681416,0.189693,0.70706,10.238737,0.010187108,0.009794538,-0.0013293956,28.40606319,76.9430429,16.37,Good
1763092681517,0.23960738,0.74625176,10.238555,0.023656351,-0.009347233,7.935224E-4,28.40606319,76.9430429,16.37,Good
1763092681617,0.2821271,0.61875236,10.239513,0.018336374,0.0014322188,-0.0010098165,28.4061341,76.94319073,16.18,Good
1763092681718,0.17098546,0.5930466,10.0133915,-0.009440372,-0.019739894,0.0029582903,28.4061341,76.94319073,16.18,Good
1763092681818,0.24284126,0.5195796,9.781438,-0.023102377,-0.0011776766,0.0038903959,28.4061341,76.94319073,16.18,Good
1763092681919,0.1838526,0.5703637,9.697955,-0.024635594,-0.0049086353,8.949762E-4,28.4061341,76.94319073,16.18,Good
1763092682020,0.3525285,0.55728555,10.168528,0.017723847,0.01488117,1.3534186E-4,28.4061341,76.94319073,16.18,Good
1763092682122,0.26619717,0.6279151,10.563083,0.047269695,0.007443349,-0.0010072802,28.4061341,76.94319073,16.18,Good
1763092682224,0.25020736,0.6410132,10.503096,0.03620617,0.013443065,-9.5655327E-4,28.4061341,76.94319073,16.18,Good
1763092682324,0.19720739,0.55275697,9.925646,-0.008682006,-0.001839662,0.0025435982,28.4061341,76.94319073,16.18,Good
1763092682426,0.10488167,0.5948147,9.611179,-0.038202487,-0.0019766241,0.003863764,28.4061341,76.94319073,16.18,Good
1763092682527,0.09288431,0.5149683,9.632619,-0.012461155,-0.0012816663,0.0027465057,28.40623256,76.94334326,16.55,Good
1763092682627,0.35590056,0.5609483,10.060302,0.010480056,0.030647071,-0.002208238,28.40623256,76.94334326,16.55,Good
1763092682728,0.3382558,0.6315857,10.225298,0.00853595,0.0363196,-0.004072449,28.40623256,76.94334326,16.55,Good
1763092682827,0.030422213,0.49251068,9.481464,-0.035832275,0.012750644,0.0020261845,28.40623256,76.94334326,16.55,Good
1763092682929,0.039288394,0.49971756,9.64197,-0.045233224,-0.001284203,0.0025321848,28.40623256,76.94334326,16.55,Good
1763092683030,0.029239072,0.5867143,9.943099,0.014347977,-0.023246385,0.0019348763,28.40623256,76.94334326,16.55,Good
1763092683132,0.17684583,0.6262383,10.604284,0.038519315,-0.017920068,0.0013261543,28.40623256,76.94334326,16.55,Good
1763092683231,0.23745143,0.6706744,10.57997,0.054075968,-0.00977968,-0.0015957115,28.40623256,76.94334326,16.55,Good
1763092683332,0.21193674,0.61591774,10.528533,0.029441746,-0.0047995723,-7.967639E-4,28.40623256,76.94334326,16.55,Good
1763092683434,0.20211813,0.5484451,9.897259,-0.017533839,-1.1494927E-4,0.0023914177,28.40623256,76.94334326,16.55,Good
1763092683536,0.19154735,0.47839195,9.460614,-0.042012203,0.002553549,0.0031923677,28.40629873,76.94349018,16.54,Good
1763092683638,0.1384754,0.5231785,9.582662,-0.023291335,-0.0024230203,0.0017826958,28.40629873,76.94349018,16.54,Good
1763092683738,0.25456837,0.6007771,10.048876,0.013029079,-0.0022201133,-3.2246794E-4,28.40629873,76.94349018,16.54,Good
1763092683838,0.19522543,0.49243653,9.860195,0.020173954,-0.007675784,-9.0329E-4,28.40629873,76.94349018,16.54,Good
1763092683940,0.102680944,0.5912716,10.119371,-0.023714904,0.0015920085,6.679735E-4,28.40629873,76.94349018,16.54,Good
1763092684039,0.2496085,0.61258405,9.925346,-0.015935943,-0.002651291,2.3552726E-4,28.40629873,76.94349018,16.54,Good
1763092684141,0.23250419,0.62632734,10.243059,0.026538903,0.013709382,-0.0031669752,28.40629873,76.94349018,16.54,Good
1763092684242,0.20107085,0.6602731,10.426577,0.026086167,-0.0076491525,-0.0012228693,28.40629873,76.94349018,16.54,Good
1763092684341,0.2980555,0.5801391,10.074919,0.010036197,0.013936384,-0.0018949999,28.40629873,76.94349018,16.54,Good
1763092684443,0.1697307,0.5266006,9.893105,-0.0016373163,0.0015653775,0.0016267108,28.40629873,76.94349018,16.54,Good
1763092684544,0.14277014,0.5178429,9.727539,-0.030317,8.7422406E-4,0.004166857,28.40636483,76.94362412,15.54,Good
1763092684644,0.09072838,0.5861739,9.592015,-0.02217027,-0.017476209,0.0050621857,28.40636483,76.94362412,15.54,Good
1763092684745,0.1668219,0.6224198,9.998847,-0.011064899,-0.0056784153,4.8155236E-4,28.40636483,76.94362412,15.54,Good
1763092684847,0.19451249,0.5668304,9.910853,0.016656049,-0.015434453,-1.19560595E-4,28.40636483,76.94362412,15.54,Good
1763092684948,0.20851463,0.5177031,10.129686,0.0063255276,-0.012522733,3.2176284E-4,28.40636483,76.94362412,15.54,Good
1763092685049,0.24248195,0.52886206,10.059073,0.00818974,-0.011697154,1.8860494E-4,28.40636483,76.94362412,15.54,Good
1763092685151,0.3061418,0.5550926,10.139202,0.0018691762,-0.0040716426,5.906151E-4,28.40636483,76.94362412,15.54,Good
1763092685249,0.18361306,0.4598124,10.170882,-0.0014508951,-0.0073295734,1.3534175E-4,28.40636483,76.94362412,15.54,Good
1763092685349,0.37397376,0.4971134,10.061415,0.009974055,0.008542853,-0.0024479222,28.40636483,76.94362412,15.54,Good
1763092685451,0.36686715,0.39399663,10.525054,-0.0039644097,-0.007977609,-0.0017174559,28.40636483,76.94362412,15.54,Good
1763092685552,0.2483252,0.38161713,9.412183,0.0064054225,-0.02706358,-0.003699607,28.40644006,76.94376042,15.27,Good
1763092685652,0.39573267,0.4588542,10.167409,-0.015698794,-0.012868944,-0.009372135,28.40644006,76.94376042,15.27,Good
1763092685754,0.48592246,0.42831185,9.777366,-0.0084283715,-0.017945431,-0.010899012,28.40644006,76.94376042,15.27,Good
1763092685852,0.5792059,0.42189372,10.412555,0.017474351,0.021952558,-0.0146087445,28.40644006,76.94376042,15.27,Good
1763092685954,0.43203002,0.2588259,10.154018,0.032736454,0.02065769,-0.0135114435,28.40644006,76.94376042,15.27,Good
1763092686055,0.42813152,0.21092217,9.888935,-0.037926026,0.013403753,-0.008514851,28.40644006,76.94376042,15.27,Good
1763092686155,0.3138073,0.27847466,9.607825,-0.034953434,0.002683904,-0.007561187,28.40644006,76.94376042,15.27,Good
1763092686256,0.30855438,0.23098716,9.670952,-0.017190164,-0.0034413617,-0.00777424,28.40644006,76.94376042,15.27,Good
1763092686358,0.3290785,0.2521244,9.675318,-0.016392484,-0.004756455,-0.008413398,28.40644006,76.94376042,15.27,Good
1763092686458,0.4053292,0.31105903,10.223195,-7.3184265E-4,-5.1188713E-4,-0.009878135,28.40644006,76.94376042,15.27,Good
1763092686558,0.3871002,0.29072666,10.017943,0.010346897,-0.003947362,-0.009159082,28.40651544,76.94390266,15.17,Good
1763092686660,0.3680649,0.30284867,10.147167,0.0033148907,-0.01444528,-0.008565579,28.40651544,76.94390266,15.17,Good
1763092686762,0.3718064,0.3770543,10.474122,0.025739955,-0.012868944,-0.009398767,28.40651544,76.94390266,15.17,Good
1763092686862,0.36542988,0.31620345,10.364318,0.043794904,-0.019746235,-0.009047483,28.40651544,76.94390266,15.17,Good
1763092686965,0.4141836,0.3377,10.245639,0.013010057,-0.019500209,-0.006762239,28.40651544,76.94390266,15.17,Good
1763092687066,0.43232214,0.31205228,10.047098,-0.009786583,-0.003681046,-0.008200345,28.40651544,76.94390266,15.17,Good
1763092687166,0.3951031,0.26209328,9.693424,-0.028440109,-0.00843415,-0.005217607,28.40651544,76.94390266,15.17,Good
1763092687267,0.353327,0.22323036,9.481424,-0.04800291,0.0073177996,-0.002128343,28.40651544,76.94390266,15.17,Good
1763092687369,0.24871019,0.30734017,9.895164,-0.0122582475,-0.0023976571,0.0027211423,28.40651544,76.94390266,15.17,Good
1763092687472,0.30581668,0.3705523,10.218547,0.027684063,0.025613701,2.9513138E-4,28.40651544,76.94390266,15.17,Good
1763092687572,0.19594978,0.21523404,10.361383,0.028145675,0.008610066,0.0040654032,28.40659784,76.94404435,14.95,Good
1763092687673,0.3264064,0.1443507,9.967421,-0.019879954,0.01589317,0.00530187,28.40659784,76.94404435,14.95,Good
1763092687774,0.06659393,0.14085442,9.689751,-0.037342668,0.014113928,0.004166857,28.40659784,76.94404435,14.95,Good
1763092687876,0.17583346,0.09507227,9.715782,-0.0135949,0.0028969564,0.003943659,28.40659784,76.94404435,14.95,Good
1763092687979,0.20020175,0.082225084,10.239034,0.009199203,0.0013814924,0.0029747763,28.40659784,76.94404435,14.95,Good
1763092688079,0.15227792,0.019842833,10.221798,0.018842375,0.005107378,0.0025321848,28.40659784,76.94404435,14.95,Good
1763092688181,0.16864131,0.06635504,10.183339,0.0094528375,-8.758522E-4,0.004471218,28.40659784,76.94404435,14.95,Good
1763092688282,0.1295779,0.017276246,10.158432,-0.0053391075,-7.515711E-4,0.006899765,28.40659784,76.94404435,14.95,Good
1763092688384,0.1549272,0.039705347,10.04548,-0.0018592464,-0.002042569,0.005435028,28.40659784,76.94404435,14.95,Good
1763092688486,0.11731534,-0.011184315,10.01573,-0.0066440552,-0.02839516,0.008417766,28.40659784,76.94404435,14.95,Good
1763092688586,0.14235094,0.059767477,10.239214,0.007728125,-0.009068236,0.0056125717,28.40664753,76.94416981,14.05,Good
1763092688686,0.20907524,0.05398327,10.188314,0.017857006,-0.017715894,0.0067932387,28.40664753,76.94416981,14.05,Good
1763092688789,0.29291698,0.044342935,10.192287,0.009201739,-0.0047729416,0.005221975,28.40664753,76.94416981,14.05,Good
1763092688889,0.24068533,0.06916974,10.277242,0.009909379,-0.008484878,0.0054096645,28.40664753,76.94416981,14.05,Good
1763092688991,0.24547343,0.023721227,10.027137,0.012663847,-0.0033082033,0.0044762907,28.40664753,76.94416981,14.05,Good
1763092689093,0.24290115,0.013594633,9.97068,-0.0059934836,-0.0018142986,0.0051560304,28.40664753,76.94416981,14.05,Good
1763092689194,0.24245058,-0.13067307,9.99514,-0.024300797,0.015280644,0.003091448,28.40664753,76.94416981,14.05,Good
1763092689296,0.26493078,-0.1607334,10.052415,-0.013301952,0.009528222,0.0033843955,28.40664753,76.94416981,14.05,Good
1763092689398,0.3540309,-0.60997325,10.27309,0.011710182,0.023878844,-2.7174107E-4,28.40664753,76.94416981,14.05,Good
1763092689499,0.11007186,-1.2052249,10.260893,0.0028329857,0.0043997383,0.0021631469,28.40664753,76.94416981,14.05,Good
1763092689601,0.23931363,-1.5737207,10.33969,-0.033515327,0.0112592755,0.001999553,28.40671196,76.94429101,13.53,Good
1763092689703,0.19145826,-1.5366393,10.063745,-0.024381962,-0.0017382083,0.0039893133,28.40671196,76.94429101,13.53,Good
1763092689803,0.1629435,-1.6214021,10.222311,-0.013861216,-0.007356205,0.004609449,28.40671196,76.94429101,13.53,Good
1763092689902,0.1728334,-1.5790992,10.038532,0.0035824745,-0.0065572574,0.008178081,28.40671196,76.94429101,13.53,Good
1763092690005,0.126421,-1.5851477,10.234003,0.002909076,-0.0076732477,0.009898989,28.40671196,76.94429101,13.53,Good
1763092690105,0.12604173,-1.5817627,10.2891,0.0021710005,0.0021512718,0.012705451,28.40671196,76.94429101,13.53,Good
1763092690209,0.02655146,-1.55163,10.265553,-0.006004897,-0.0049327305,0.02157377,28.40671196,76.94429101,13.53,Good
1763092690309,0.06844313,-1.5941644,10.25901,-0.0020621538,0.0071136244,0.02141398,28.40671196,76.94429101,13.53,Good
1763092690410,0.061957803,-1.5519806,10.273734,0.008749003,0.0052139047,0.021653665,28.40671196,76.94429101,13.53,Good
1763092690512,0.026025625,-1.5534413,10.232835,0.005648325,-7.4903504E-4,0.02103353,28.40671196,76.94429101,13.53,Good
1763092690613,0.13486506,-1.5799376,10.442889,0.0026047148,0.013124755,0.019283453,28.40675946,76.94439051,11.74,Good
1763092690715,0.01989921,-1.5077881,10.2875595,0.0062988964,-0.0011244136,0.02239935,28.40675946,76.94439051,11.74,Good
1763092690816,0.060006373,-1.6158698,10.279159,0.0027822587,0.0098275095,0.018624004,28.40675946,76.94439051,11.74,Good
1763092690916,0.15798144,-1.537837,10.182561,-0.0048064752,0.020367278,0.020029139,28.40675946,76.94439051,11.74,Good
1763092691017,0.012028351,-1.6646348,10.162083,-0.008694688,0.008596117,0.01789861,28.40675946,76.94439051,11.74,Good
1763092691119,0.08450013,-1.6306019,10.488463,-0.0060188468,0.0066317194,0.020272627,28.40675946,76.94439051,11.74,Good
1763092691218,0.13160197,-1.7626659,10.136432,0.007444055,0.024601702,0.015235452,28.40675946,76.94439051,11.74,Good
1763092691319,-0.09433255,-1.6188203,10.235522,0.0055798437,-0.007968731,0.018804085,28.40675946,76.94439051,11.74,Good
1763092691421,0.21996446,-1.71109,10.183459,-0.0045224056,-9.773055E-4,0.011217887,28.40675946,76.94439051,11.74,Good
1763092691525,0.14908394,-1.6382276,10.338663,-0.017935848,-0.009247048,0.011640187,28.40680226,76.94446959,9.35,Good
1763092691627,0.12495805,-1.6408511,10.428551,0.0017930858,-0.009042872,0.00901127,28.40680226,76.94446959,9.35,Good
1763092691728,0.21110117,-1.7522923,9.904266,0.002680805,-0.016347537,0.007717735,28.40680226,76.94446959,9.35,Good
1763092691827,0.18044636,-1.6005329,10.411386,-0.0030221592,-0.013587996,0.010787977,28.40680226,76.94446959,9.35,Good
1763092691928,0.25879604,-1.7469492,10.10307,-0.009786583,6.5990293E-4,0.004209975,28.40680226,76.94446959,9.35,Good
1763092692031,0.32997683,-1.7104312,10.324852,-0.010558899,-0.015333,0.005688662,28.40680226,76.94446959,9.35,Good
1763092692132,0.28425738,-1.640509,10.318758,0.0042216326,-0.019393682,-0.0038327645,28.40680226,76.94446959,9.35,Good
1763092692234,0.68480706,-1.7561849,10.194299,0.002782259,-0.009829138,-0.022388639,28.40680226,76.94446959,9.35,Good
1763092692335,0.68589926,-1.5059059,10.232692,-6.253163E-4,-0.012256417,-0.0348053,28.40680226,76.94446959,9.35,Good
1763092692437,0.68558556,-1.3493129,10.2527485,0.011608728,-0.02877561,-0.050085492,28.40680226,76.94446959,9.35,Good
1763092692538,0.9472916,-1.2560917,10.230411,0.004727633,-0.024879789,-0.07121068,28.40682901,76.94453166,7.05,Good
1763092692637,1.0247854,-1.1297073,10.25221,0.0012655265,-0.013241786,-0.08359437,28.40682901,76.94453166,7.05,Good
1763092692739,1.0069989,-1.0271809,10.128722,0.0028076225,-0.016905531,-0.09703317,28.40682901,76.94453166,7.05,Good
1763092692838,1.0257581,-0.98062974,10.224305,3.7406906E-4,-0.014322467,-0.11566861,28.40682901,76.94453166,7.05,Good
1763092692939,0.9885406,-0.95708394,10.159276,-6.16439E-4,-0.015358363,-0.12135669,28.40682901,76.94453166,7.05,Good
1763092693039,0.83045214,-0.7022941,10.105966,-0.0037145806,-0.022349788,-0.1186948,28.40682901,76.94453166,7.05,Good
1763092693140,0.93896735,-0.5957552,10.249215,3.9809788E-4,-0.0034375573,-0.11519338,28.40682901,76.94453166,7.05,Good
1763092693239,0.7264884,-0.5283225,10.192023,0.0164189,-0.0020032558,-0.11065206,28.40682901,76.94453166,7.05,Good
1763092693341,0.7112799,-0.4952991,10.042822,0.009121845,0.0023909558,-0.10447353,28.40682901,76.94453166,7.05,Good
1763092693440,0.63438225,-0.34393054,10.026794,-0.005898371,-0.004852836,-0.095924795,28.40682901,76.94453166,7.05,Good
1763092693541,0.5156264,-0.24595547,10.183878,0.0036699786,-0.008839965,-0.09119959,28.40685574,76.94459539,6.99,Good
1763092693644,0.4693366,-0.2321387,10.022346,0.008828897,-0.00911389,-0.08149047,28.40685574,76.94459539,6.99,Good
1763092693745,0.46843547,-0.22080293,10.129201,-0.005359398,0.0069360803,-0.06801742,28.40685574,76.94459539,6.99,Good
1763092693846,0.29064533,-0.11247884,10.174402,-0.0132486895,-4.3199223E-4,-0.052435413,28.40685574,76.94459539,6.99,Good
1763092693948,0.2412097,-0.051184077,10.140814,-0.0099730035,-0.0011510452,-0.04465899,28.40685574,76.94459539,6.99,Good
1763092694049,0.26966333,0.032832947,9.953441,0.00316271,0.0023453021,-0.035044987,28.40685574,76.94459539,6.99,Good
1763092694151,0.2813486,0.03425563,9.970501,0.002553988,0.0033091113,-0.024265533,28.40685574,76.94459539,6.99,Good
1763092694253,0.15684074,0.024804894,10.06284,-0.0076027922,0.001805061,-0.019785086,28.40685574,76.94459539,6.99,Good
1763092694354,0.23290002,-0.0030539446,10.135968,-0.008174737,-0.005796355,-0.012420817,28.40685574,76.94459539,6.99,Good
1763092694462,0.21821061,0.08075643,10.047099,0.003689001,-0.0030152565,-0.009824872,28.40685574,76.94459539,6.99,Good
1763092694562,0.17634678,0.07704914,10.039913,7.024585E-4,0.0036641995,-0.0075256783,28.40686878,76.94464036,5.38,Good
1763092694662,0.13276902,0.1065392,10.176811,0.003543161,0.006428812,4.8916147E-4,28.40686878,76.94464036,5.38,Good
1763092694763,0.037580125,0.11007252,10.094381,-0.0015041586,0.007956958,0.011720083,28.40686878,76.94464036,5.38,Good
1763092694865,0.09354307,0.15947928,10.101653,0.006738952,0.016523452,0.021971976,28.40686878,76.94464036,5.38,Good
1763092694966,-0.08652848,0.22089192,9.838693,0.0066184755,0.015147487,0.030388827,28.40686878,76.94464036,5.38,Good
1763092695067,-0.10462289,0.39531413,10.033382,0.0011843636,0.0074179852,0.042972885,28.40686878,76.94464036,5.38,Good
1763092695169,-0.030177698,0.46813953,10.082232,0.007763634,-2.1893962E-4,0.050682094,28.40686878,76.94464036,5.38,Good
1763092695271,0.092405215,0.5079615,10.052127,0.0015394514,0.00855934,0.04804557,28.40686878,76.94464036,5.38,Good
1763092695372,0.08292311,0.4653448,10.179707,0.0073375283,0.0027904299,0.048152093,28.40686878,76.94464036,5.38,Good
1763092695474,-0.07276303,0.50496715,9.935587,0.010239103,-7.997619E-4,0.048324566,28.40686878,76.94464036,5.38,Good
1763092695575,0.10710604,0.5064101,9.952135,-0.0010780531,0.005666641,0.04911083,28.40688352,76.94465284,3.14,Good
1763092695675,-0.038687352,0.66779983,10.106864,0.007683739,7.3979737E-4,0.050069567,28.40688352,76.94465284,3.14,Good
1763092695776,0.0064674197,0.70025855,10.049192,0.0049381494,0.025730371,0.056161862,28.40688352,76.94465284,3.14,Good
1763092695878,-0.08498853,0.637306,9.943353,0.019295111,0.014588224,0.063891366,28.40688352,76.94465284,3.14,Good
1763092695979,-0.1684624,0.65480435,10.006313,0.021804823,0.022204857,0.070111744,28.40688352,76.94465284,3.14,Good
1763092696078,-0.09707714,0.68049586,9.721431,-0.0024895272,-0.0034679933,0.07856537,28.40688352,76.94465284,3.14,Good
1763092696180,-0.01768699,0.5278554,10.055997,-0.011277951,-0.0014706241,0.073105894,28.40688352,76.94465284,3.14,Good
1763092696281,0.017905828,0.6919342,10.24652,-0.007489925,-6.729449E-4,0.06795585,28.40688352,76.94465284,3.14,Good
1763092696383,0.06045124,0.67010117,9.978828,-6.5194734E-4,0.009075485,0.064104415,28.40688352,76.94465284,3.14,Good
1763092696485,0.07130601,0.59606254,9.957063,0.0013454214,0.011871802,0.06205378,28.40688352,76.94465284,3.14,Good
1763092696586,0.046883818,0.49866587,10.013386,-0.008808822,0.008356432,0.057353944,28.4069054,76.94466907,2.7,Good
1763092696687,-0.017247817,0.7666732,10.040749,0.0026300782,-0.0017635716,0.052940708,28.4069054,76.94466907,2.7,Good
1763092696789,0.24895258,0.6314313,10.096777,-0.0023563695,0.0088358,0.05190715,28.4069054,76.94466907,2.7,Good
1763092696891,0.0866137,0.536234,10.075786,-0.01175732,0.009448327,0.03805872,28.4069054,76.94466907,2.7,Good
1763092696992,0.073701486,0.7947704,9.754499,-0.004370225,0.008838337,0.03201589,28.4069054,76.94466907,2.7,Good
1763092697091,0.03982446,1.1019204,9.646153,0.014155216,-0.0050925203,0.030042615,28.4069054,76.94466907,2.7,Good
1763092697194,0.16971928,0.9433996,10.037095,0.016985772,-6.729447E-4,0.022555334,28.4069054,76.94466907,2.7,Good
1763092697293,0.307582,0.95976627,10.031206,-0.0062179496,0.0011925349,0.015075662,28.4069054,76.94466907,2.7,Good
1763092697393,-0.0468904,1.3102657,10.097578,-0.0040341597,-1.1241322E-4,0.0130250305,28.4069054,76.94466907,2.7,Good
1763092697496,0.18810458,1.188517,9.937144,0.005648325,0.008026707,0.017127562,28.4069054,76.94466907,2.7,Good
1763092697594,0.029044809,1.1162333,9.855877,-0.00219658,-0.00458652,0.017312717,28.40692245,76.94467749,2.37,Good
1763092697696,0.011400964,1.4727006,9.923447,0.0026770006,5.2674505E-4,0.013158188,28.40692245,76.94467749,2.37,Good
1763092697798,0.25978926,1.1813189,9.938074,0.0067516337,6.865345E-4,0.016487136,28.40692245,76.94467749,2.37,Good
1763092697899,0.015333612,1.2857267,9.956946,-0.007489925,0.004374375,0.016239842,28.40692245,76.94467749,2.37,Good
1763092698000,0.0653363,1.4167461,9.849589,0.004735242,-0.0030063791,0.014718038,28.40692245,76.94467749,2.37,Good
1763092698103,0.14372264,1.1884942,9.805441,0.0031297377,0.0035361142,0.017286085,28.40692245,76.94467749,2.37,Good
1763092698203,0.105340794,1.4281247,9.921094,0.010746372,0.0061751776,0.01740656,28.40692245,76.94467749,2.37,Good
1763092698305,-0.070273444,1.335588,9.900005,0.014181847,-0.007888837,0.013104925,28.40692245,76.94467749,2.37,Good
1763092698404,0.21882659,1.2430739,9.94966,-0.005285844,0.003163272,0.019097032,28.40692245,76.94467749,2.37,Good
1763092698506,-0.025702624,1.4353249,9.976828,0.006180957,-0.01036177,0.018192826,28.40692245,76.94467749,2.37,Good
1763092698607,0.23366185,1.1495988,9.966768,0.0016383686,0.008542853,0.015821347,28.40693121,76.9446986,2.73,Good
1763092698706,-0.019224087,1.3033801,9.889894,-0.008002266,-0.011191154,0.021307455,28.40693121,76.9446986,2.73,Good
1763092698808,0.08929109,1.2637949,9.950977,0.002706169,-0.00427455,0.018852275,28.40693121,76.9446986,2.73,Good
1763092698907,0.2505068,1.0892243,9.873963,0.00233079,0.0026839036,0.016247453,28.40693121,76.9446986,2.73,Good
1763092699009,0.10476759,1.240111,9.913865,-0.009147424,-2.9883435E-4,0.011586924,28.40693121,76.9446986,2.73,Good
1763092699111,0.12935546,1.1078492,9.977807,0.0013111804,0.005363548,0.010685255,28.40693121,76.9446986,2.73,Good
1763092699212,0.114007294,1.0622752,9.93628,0.0037422644,0.0035893775,0.013584293,28.40693121,76.9446986,2.73,Good
1763092699313,0.12097129,1.2098966,9.8766575,0.0029598027,0.0069868076,0.008453274,28.40693121,76.9446986,2.73,Good
1763092699415,0.124843985,0.9906961,9.975805,-0.01074532,0.004068746,0.012891872,28.40693121,76.9446986,2.73,Good
1763092699516,0.030541979,1.042273,9.946247,-0.003761503,-0.00627826,0.013221596,28.40693121,76.9446986,2.73,Good
1763092699618,0.20372367,1.1063064,9.943866,0.0038487907,0.0010327451,0.0050888173,28.40695106,76.94473217,3.15,Good
1763092699717,0.16750348,0.9160912,9.927202,-0.006590792,0.0011392714,0.0064203967,28.40695106,76.94473217,3.15,Good
1763092699819,0.1117487,1.0865295,9.95505,0.0011590003,-1.4031293E-4,0.0049784863,28.40695106,76.94473217,3.15,Good
1763092699919,0.17445035,1.0041848,10.010086,0.0045678434,0.003536114,0.004449659,28.40695106,76.94473217,3.15,Good
1763092700019,0.18541537,0.88569427,9.985444,-0.0032352118,0.010060853,0.005435028,28.40695106,76.94473217,3.15,Good
1763092700119,-0.027967582,1.121743,9.808268,-0.0016905799,-0.0072230473,0.004369764,28.40695106,76.94473217,3.15,Good
1763092700220,0.1898413,0.9142347,10.027274,0.0018691758,0.0013307654,0.002898686,28.40695106,76.94473217,3.15,Good
1763092700320,0.105879776,0.8889025,10.048234,6.7963154E-4,-0.0012043085,0.005541554,28.40695106,76.94473217,3.15,Good
1763092700421,0.17731637,1.1165158,9.803559,4.1331598E-4,0.0034562196,0.0037306063,28.40695106,76.94473217,3.15,Good
1763092700521,0.05109051,0.8613764,10.0062,-0.0017971063,-0.011244416,0.0060475543,28.40697065,76.94476316,3.33,Good
1763092700622,0.2274196,0.9472001,9.897654,-0.004776039,0.006504902,0.003126957,28.40697065,76.94476316,3.33,Good
1763092700721,0.1892103,0.940953,10.399584,-0.0057918443,0.0077971686,-0.0034865541,28.40697065,76.94476316,3.33,Good
1763092700822,0.19259901,0.81247354,10.110783,0.032104906,-4.0536033E-4,-0.0071084504,28.40697065,76.94476316,3.33,Good
1763092700923,0.16648538,0.91752845,10.450854,0.06327401,0.006758536,-0.009909839,28.40697065,76.94476316,3.33,Good
1763092701025,0.247983,1.1185119,9.517185,0.06853692,0.010593485,-0.00828024,28.40697065,76.94476316,3.33,Good
1763092701127,0.032218814,0.9073477,9.065489,-8.380728E-5,0.007062897,-0.010543925,28.40697065,76.94476316,3.33,Good
1763092701228,0.0581128,1.0806406,9.425815,-0.0684826,0.0070514837,-0.01081024,28.40697065,76.94476316,3.33,Good
1763092701327,0.04976569,1.2422355,9.701848,-0.06331607,-0.02304221,-4.7718477E-4,28.40697065,76.94476316,3.33,Good
1763092701430,0.081745334,0.70121676,10.7638235,-0.08317436,-0.028800974,0.0041922205,28.40697065,76.94476316,3.33,Good
1763092701532,0.43682656,1.0274838,11.01453,-0.057696808,-0.021470947,-0.008812872,28.40698627,76.94479489,3.45,Good
1763092701634,0.21872394,0.68561476,10.71116,-0.03906738,-0.0038687354,-0.010620015,28.40698627,76.94479489,3.45,Good
1763092701736,0.32499304,0.78600645,9.255831,-0.021424586,0.017997067,-0.005776871,28.40698627,76.94479489,3.45,Good
1763092701838,0.012470727,0.867628,8.690789,0.027993495,0.010613776,-0.014881068,28.40698627,76.94479489,3.45,Good
1763092701940,0.16456899,0.7822438,9.500209,0.04724433,0.00952315,-0.014652797,28.40698627,76.94479489,3.45,Good
1763092702041,-0.061661124,1.0697469,9.555227,0.044169016,-0.021763895,-0.016109925,28.40698627,76.94479489,3.45,Good
1763092702143,0.34608492,0.896958,10.96702,0.07040113,-0.016064735,-0.012727714,28.40698627,76.94479489,3.45,Good
1763092702242,0.25806946,1.1442436,10.665681,0.021728732,-0.012771294,-0.0057756025,28.40698627,76.94479489,3.45,Good
1763092702343,0.24826816,0.8663593,10.172292,-0.021344692,0.008383064,-0.014991399,28.40698627,76.94479489,3.45,Good
1763092702445,0.12540293,0.95483804,9.768382,-0.021439804,-0.0026259278,-0.008337308,28.40698627,76.94479489,3.45,Good
1763092702545,0.15507264,0.8420623,9.635134,-0.0074163713,0.006279168,-0.0043653967,28.4070034,76.94482689,3.56,Good
1763092702645,0.2647599,0.16367137,10.052606,2.2689455E-4,0.012724013,-0.004684976,28.4070034,76.94482689,3.56,Good
1763092702747,-0.022937078,0.60713434,10.080034,0.0059780497,0.012211672,2.6089064E-4,28.4070034,76.94482689,3.56,Good
1763092702846,-0.032159667,0.7170868,10.174236,0.0076837386,0.005453589,0.007831871,28.4070034,76.94482689,3.56,Good
1763092702947,0.07910175,0.75251704,9.806867,0.0049939486,3.1369246E-4,0.012385872,28.4070034,76.94482689,3.56,Good
1763092703046,0.13228992,0.2563764,9.9991865,-0.010612162,0.0069982205,0.01068145,28.4070034,76.94482689,3.56,Good
1763092703148,0.076973364,0.6149342,10.139411,-0.0134351095,0.006865063,0.008284608,28.4070034,76.94482689,3.56,Good
1763092703249,0.04764337,0.68335146,10.011517,0.0180764,-0.0033868304,0.009975079,28.4070034,76.94482689,3.56,Good
1763092703351,-0.06821162,0.5115547,9.594531,-0.014185867,-0.028344432,0.022834333,28.4070034,76.94482689,3.56,Good
1763092703453,0.0068381457,0.7060904,9.540627,-0.08033366,-0.027809266,0.020535138,28.4070034,76.94482689,3.56,Good
1763092703552,0.28524122,0.6852269,9.204547,-0.1259802,-0.011324312,0.015794715,28.40701953,76.94485841,3.55,Good
1763092703653,0.40782985,0.42184407,10.628359,-0.120179586,0.04087233,0.010456985,28.40701953,76.94485841,3.55,Good
1763092703755,0.0613638,0.34870782,11.108695,-0.021025112,0.035760336,0.0118798725,28.40701953,76.94485841,3.55,Good
1763092703857,-0.110372044,0.34321246,10.74436,0.042171646,0.034810476,0.017787011,28.40701953,76.94485841,3.55,Good
1763092703958,-0.20373581,0.33827037,9.828084,0.039854698,-0.002509256,0.02474293,28.40701953,76.94485841,3.55,Good
1763092704060,-0.21487479,0.3816599,9.204427,0.030479109,-0.035547644,0.017076837,28.40701953,76.94485841,3.55,Good
1763092704160,0.16829367,0.47628862,9.221827,0.054049335,-0.024320526,0.020082401,28.40701953,76.94485841,3.55,Good
1763092704261,0.20983478,0.72810596,9.089666,0.100388296,-0.0010178873,0.026873456,28.40701953,76.94485841,3.55,Good
1763092704363,0.23523562,0.61755466,10.849522,0.12379111,0.035089474,0.020754531,28.40701953,76.94485841,3.55,Good
1763092704463,0.030849965,0.8444578,10.886658,0.04121291,0.026971912,0.016913243,28.40701953,76.94485841,3.55,Good
1763092704565,-0.047191296,0.7143919,10.714956,-0.03140763,0.011374678,0.016113026,28.4070337,76.94488719,3.34,Good
1763092704667,0.040260773,0.6451768,9.9967375,-0.040732488,-0.008314942,0.011187451,28.4070337,76.94488719,3.34,Good
1763092704769,0.16121534,0.4437028,9.7785635,-0.01598667,-0.008484877,0.0061452035,28.4070337,76.94488719,3.34,Good
1763092704870,0.15798144,0.4950031,9.812628,4.932104E-4,-0.0049060993,0.0030648166,28.4070337,76.94488719,3.34,Good
1763092704971,0.075037986,0.6645659,10.050031,0.012699355,0.014748014,-0.0034168048,28.4070337,76.94488719,3.34,Good
1763092705073,0.13607992,0.61979616,9.988125,0.010107214,0.003429588,-0.0074812924,28.4070337,76.94488719,3.34,Good
1763092705175,0.02617023,0.56347674,10.0466175,0.0029090757,0.0054396386,-0.0032899878,28.4070337,76.94488719,3.34,Good
1763092705274,0.05576462,0.57795036,9.931297,0.0043015275,-0.012868944,-0.0023147643,28.4070337,76.94488719,3.34,Good
1763092705375,0.14246926,0.6895446,9.992469,0.0015851058,-0.0034413615,-0.009478661,28.4070337,76.94488719,3.34,Good
1763092705477,0.12821762,0.5772507,10.158007,0.0071447664,-0.007850791,-0.007272044,28.4070337,76.94488719,3.34,Good
1763092705578,0.13819022,0.66679317,9.960634,0.0013454215,0.00614601,-0.0068953973,28.40704676,76.94491181,3.12,Good
1763092705680,0.09096792,0.73086077,9.990024,-0.0019099732,0.007696983,-0.011989638,28.40704676,76.94491181,3.12,Good
1763092705781,0.07088868,0.51194257,10.092898,-0.016577637,0.008622747,-0.012461399,28.40704676,76.94491181,3.12,Good
1763092705884,0.039764572,0.74840766,9.935706,-0.00693193,0.0037656534,-0.005242971,28.40704676,76.94491181,3.12,Good
1763092705985,0.021439163,0.71310574,9.998448,0.0036091064,0.0012724295,-0.010464029,28.40704676,76.94491181,3.12,Good
1763092706087,0.08545832,0.91627085,9.893725,-2.8671444E-4,-0.0051115425,-0.008793849,28.40704676,76.94491181,3.12,Good
1763092706188,2.2206704E-4,0.9943463,9.913808,0.014155216,-0.009007364,-0.005803502,28.40704676,76.94491181,3.12,Good
1763092706290,0.14947748,0.8696189,10.052306,0.0031880734,-0.0014592106,-0.006840866,28.40704676,76.94491181,3.12,Good
1763092706391,0.060565304,1.0737393,9.927155,2.801576E-4,0.0021246402,-0.009984661,28.40704676,76.94491181,3.12,Good
1763092706493,0.04455553,1.0604187,9.945229,-0.001681703,-0.0017635716,-0.005166881,28.40704676,76.94491181,3.12,Good
1763092706594,0.017389663,0.9724448,9.949226,0.0044879485,-0.00341473,-0.0052442392,28.40705841,76.9449365,2.92,Good
1763092706696,0.027248196,1.1610289,9.950679,0.008210029,-0.0074957036,-0.00798222,28.40705841,76.9449365,2.92,Good
1763092706797,0.038036406,1.0552028,9.947972,-0.0033417377,-0.0051724147,-0.0028207647,28.40705841,76.9449365,2.92,Good
1763092706899,0.044375863,1.0760492,9.969243,-0.010254538,0.0011785845,9.457029E-4,28.40705841,76.9449365,2.92,Good
1763092707001,0.010431362,1.1237022,9.911242,-0.004114054,0.007770537,-0.0031403436,28.40705841,76.9449365,2.92,Good
1763092707102,-0.047007263,0.97232795,10.033952,-0.0084283715,-0.0025891508,0.0058345017,28.40705841,76.9449365,2.92,Good
1763092707204,0.06435328,1.0883042,9.846403,-0.0062978445,0.017639443,0.0062720207,28.40705841,76.9449365,2.92,Good
1763092707305,-0.12564322,1.0562866,9.91295,-0.0070587466,-0.008281969,0.006906106,28.40705841,76.9449365,2.92,Good
1763092707407,-0.010386482,0.9575016,10.075731,-0.007123424,-8.314661E-4,0.011293977,28.40705841,76.9449365,2.92,Good
1763092707510,-0.010780027,1.0633532,9.933371,1.7646656E-5,-0.016727988,0.013069416,28.40705841,76.9449365,2.92,Good
1763092707609,0.0328462,0.96930784,9.81103,-0.0010514215,-0.0029353616,0.007698713,28.40707204,76.94496269,3.13,Good
1763092707711,0.052400723,0.99927413,9.979364,-0.0038122297,-0.00546663,0.010583801,28.40707204,76.94496269,3.13,Good
1763092707813,0.07528039,0.96959305,10.049894,0.0033161587,0.0068650623,0.009216714,28.40707204,76.94496269,3.13,Good
1763092707914,0.060545348,0.6302507,9.979783,-0.004370225,0.017563352,0.011750518,28.40707204,76.94496269,3.13,Good
1763092708016,-0.029550303,0.30501884,10.021947,-0.015911847,0.014401803,0.013717451,28.40707204,76.94496269,3.13,Good
1763092708119,-0.19103979,0.7427783,10.036676,9.3072996E-4,0.013733476,0.013018689,28.40707204,76.94496269,3.13,Good
1763092708219,-0.11162397,0.82181484,9.947345,0.007071213,-0.00626431,0.019949244,28.40707204,76.94496269,3.13,Good
1763092708321,-0.02832691,0.74697036,9.94427,-0.0038629563,0.0018380336,0.027907016,28.40707204,76.94496269,3.13,Good
1763092708420,-0.0010783386,0.23906904,10.094827,-0.012556268,-8.8472915E-4,0.02357114,28.40707204,76.94496269,3.13,Good
1763092708520,-0.11698528,0.6361082,10.083032,-0.005791844,-6.983081E-4,0.025035877,28.40708773,76.94498999,3.14,Good
1763092708623,-0.06593592,0.75110257,9.985413,0.012930161,-3.2518386E-5,0.030122511,28.40708773,76.94498999,3.14,Good
1763092708724,-0.021337243,0.36724424,9.961147,0.0024525346,0.005033824,0.03143253,28.40708773,76.94498999,3.14,Good
1763092708825,-0.16876182,0.37579098,10.019428,-0.055223875,0.057307824,0.020196537,28.40708773,76.94498999,3.14,Good
1763092708927,0.010944685,0.70278233,10.161341,0.033276692,-0.061658014,0.0025854495,28.40708773,76.94498999,3.14,Bad
1763092709027,-0.072463594,0.5965942,9.848511,0.0028367902,0.0024974828,0.028098509,28.40708773,76.94498999,3.14,Bad
1763092709128,0.054376997,0.5850959,10.090215,0.0014633612,0.011095681,0.02608085,28.40708773,76.94498999,3.14,Bad
1763092709227,-0.10989295,0.67235124,9.929239,0.01205132,0.005027483,0.025355456,28.40708773,76.94498999,3.14,Bad
1763092709329,-0.1931843,0.49717045,10.037803,0.0018514214,-0.006344205,0.027193036,28.40708773,76.94498999,3.14,Bad
1763092709429,-0.04904779,0.65666085,10.095665,-0.006191318,-0.010019364,0.029323563,28.40708773,76.94498999,3.14,Bad
1763092709529,0.024313733,0.5818021,9.904924,-0.0023665149,-0.011224126,0.028997643,28.40710288,76.94501534,2.94,Bad
1763092709631,-0.019169904,0.5135966,10.033639,-0.0023297379,-0.008527995,0.027965352,28.40710288,76.94501534,2.94,Bad
1763092709733,0.06288094,0.33794242,9.9787655,-0.0021889713,0.013403752,0.030417994,28.40710288,76.94501534,2.94,Bad
1763092709834,-0.15320262,0.01556519,10.155922,-0.009094161,0.013150117,0.037233144,28.40710288,76.94501534,2.94,Bad
1763092709943,-0.07072833,-0.044523474,10.109555,-0.013115531,0.021246122,0.042639356,28.40710288,76.94501534,2.94,Bad
1763092710035,-0.1984842,0.023098227,10.13843,-0.014338047,0.015737187,0.049871735,28.40710288,76.94501534,2.94,Bad
1763092710136,-0.20601723,0.08492,10.016928,-0.0045667915,0.010540222,0.05275936,28.40710288,76.94501534,2.94,Bad
1763092710239,-0.16013812,0.11971433,9.924388,-0.0021382442,0.011349315,0.057303216,28.40710288,76.94501534,2.94,Bad
1763092710339,-0.12536944,0.17167054,10.144116,-0.0046200547,9.528502E-4,0.060722202,28.40710288,76.94501534,2.94,Bad
1763092710442,-0.13624321,0.13486573,10.100935,0.0035431613,-0.0018396621,0.05890111,28.40710288,76.94501534,2.94,Bad
1763092710543,-0.16934359,0.08360819,10.076358,0.0025172113,-0.012176522,0.0632522,28.40711512,76.94503845,2.67,Bad
1763092710645,0.06665382,0.22242047,10.047156,0.0031119834,0.009142698,0.0602961,28.40711512,76.94503845,2.67,Bad
1763092710746,-0.053733237,0.13990194,10.087822,0.0091218455,0.0081700105,0.056194834,28.40711512,76.94503845,2.67,Bad
1763092710847,-0.122888416,0.14594482,10.09291,0.008184667,0.021748316,0.054538604,28.40711512,76.94503845,2.67,Bad
1763092710949,-0.072668925,0.3657043,9.869834,0.003795527,0.0022844302,0.05664757,28.40711512,76.94503845,2.67,Bad
1763092711051,-0.15259236,0.45957282,10.096623,0.006941859,8.9958723E-4,0.04860356,28.40711512,76.94503845,2.67,Bad
1763092711152,0.04704796,0.44709355,10.11731,0.009867529,-0.008820943,0.049057566,28.40711512,76.94503845,2.67,Bad
1763092711251,0.0198821,0.50921917,9.979903,0.007763634,-2.4557102E-4,0.046341144,28.40711512,76.94503845,2.67,Bad
1763092711354,0.08593742,0.51532763,10.059314,0.009224567,0.0011785849,0.039117645,28.40711512,76.94503845,2.67,Bad
1763092711454,-0.025614878,0.4659722,10.072081,0.0064320546,0.010114117,0.027166404,28.40711512,76.94503845,2.67,Bad
1763092711553,0.005928437,0.4528056,10.143574,0.0031830007,0.0044149566,0.0292703,28.40712828,76.94505768,2.22,Bad
1763092711655,-0.04790994,0.54449254,9.9478035,0.010898552,-0.010640767,0.023848869,28.40712828,76.94505768,2.22,Bad
1763092711756,0.043968067,0.6621162,10.029247,0.0069380547,-0.019473577,0.019097032,28.40712828,76.94505768,2.22,Bad
1763092711858,0.1521724,0.6558823,10.041107,0.014550884,-0.0070645255,0.017000746,28.40712828,76.94505768,2.22,Bad
1763092711960,0.10459648,0.72976,10.037973,0.01623248,0.006598747,0.011959767,28.40712828,76.94505768,2.22,Bad
1763092712062,-0.05365909,0.67857945,9.936425,0.011760909,-9.012155E-4,0.008504001,28.40712828,76.94505768,2.22,Bad
1763092712163,-0.03177468,0.6877821,10.108184,0.012983425,-0.007915469,0.018484507,28.40712828,76.94505768,2.22,Bad
1763092712265,0.07964929,0.79146636,9.831623,0.013713892,-0.0021186594,0.017457288,28.40712828,76.94505768,2.22,Bad
1763092712366,0.049614556,0.67654616,10.018353,0.005073844,-0.01196347,0.011613556,28.40712828,76.94505768,2.22,Bad
1763092712468,0.08893177,0.85320985,9.960799,0.00628241,-0.0053651766,0.011623701,28.40712828,76.94505768,2.22,Bad
1763092712567,0.009102447,0.6619309,10.1427355,0.008429424,-0.011590628,0.01789861,28.4071393,76.94507213,1.82,Bad
1763092712668,0.11988192,0.7798369,9.957155,0.004914054,3.136921E-4,0.02191998,28.4071393,76.94507213,1.82,Bad
1763092712768,0.05144253,0.80925286,9.847733,-6.605322E-5,-0.00677031,0.008870503,28.4071393,76.94507213,1.82,Bad
1763092712869,0.030901302,0.63132864,10.254845,0.0036699784,0.0018380334,0.011826609,28.4071393,76.94507213,1.82,Bad
1763092712971,0.09353165,0.80510354,9.960177,0.0077636344,-0.010658522,0.021147665,28.4071393,76.94507213,1.82,Bad
1763092713072,0.12013288,0.8021263,9.853183,-0.0029245098,-0.0012055764,0.005790116,28.4071393,76.94507213,1.82,Bad
1763092713173,0.107334174,0.65692604,10.111378,-0.0130889,0.0047877994,0.016247453,28.4071393,76.94507213,1.82,Bad
1763092713275,0.022157805,0.7391252,9.934509,-0.010990077,-0.0020172058,0.026461301,28.4071393,76.94507213,1.82,Bad
1763092713377,0.051610786,0.7197218,10.15153,-0.0017971059,0.011632117,0.018697558,28.4071393,76.94507213,1.82,Bad
1763092713479,-0.05743197,0.6419287,9.9496,0.0013872709,0.0082042515,0.024863407,28.4071393,76.94507213,1.82,Bad
1763092713580,0.081097975,0.6723826,9.974322,-0.0016639483,0.017251384,0.031241037,28.40714982,76.94508349,1.78,Bad
1763092713679,-0.108216114,0.70103705,9.923729,0.005899423,0.0012457976,0.04053546,28.40714982,76.94508349,1.78,Bad
1763092713780,-0.15450872,0.6421682,9.946366,-0.0023157878,-0.009905228,0.039802458,28.40714982,76.94508349,1.78,Bad
1763092713882,0.17788672,0.72103363,9.999532,-0.0020101592,-0.011084627,0.040934935,28.40714982,76.94508349,1.78,Bad
1763092713981,0.04485496,0.7759557,10.038173,-0.0029422643,-0.010445469,0.033824302,28.40714982,76.94508349,1.78,Bad
1763092714083,0.24140398,0.7503241,9.878275,0.0039236126,0.009954328,0.035490677,28.40714982,76.94508349,1.78,Bad
1763092714184,0.024462022,0.7773844,10.073906,0.008003319,7.40078E-5,0.04104146,28.40714982,76.94508349,1.78,Bad
1763092714286,-0.064079426,0.72547096,10.134711,0.009199204,-6.4758153E-4,0.026486665,28.40714982,76.94508349,1.78,Bad
1763092714387,0.19134703,0.74036855,10.004323,-0.010186057,-0.0053588357,0.03520914,28.40714982,76.94508349,1.78,Bad
1763092714490,0.20181869,0.83117145,9.925586,0.004304064,0.0020663042,0.04152717,28.40714982,76.94508349,1.78,Bad
1763092714591,0.021382125,0.82158667,9.80527,0.010533319,0.00968801,0.032039985,28.40715928,76.94509359,1.64,Bad
1763092714693,0.0843935,0.80931854,10.036639,0.0059260544,0.014668119,0.025115773,28.40715928,76.94509359,1.64,Bad
1763092714794,0.002655105,0.7799301,10.131232,0.005876596,0.009700693,0.029631728,28.40715928,76.94509359,1.64,Bad
1763092714895,0.18355317,0.78619635,9.901152,-5.8443464E-5,0.025273832,0.035541404,28.40715928,76.94509359,1.64,Bad
1763092714998,-0.008333215,0.9319498,9.922078,9.72579E-4,0.009528222,0.02343798,28.40715928,76.94509359,1.64,Bad
1763092715098,-0.0015574349,0.83883697,9.989066,-0.010736442,0.02905298,0.02608085,28.40715928,76.94509359,1.64,Bad
1763092715200,0.0120853875,0.8353892,10.111948,-0.0067772134,0.017917173,0.034783036,28.40715928,76.94509359,1.64,Bad
1763092715302,-0.09696175,0.94510126,9.848449,0.006991318,0.010087485,0.02492935,28.40715928,76.94509359,1.64,Bad
1763092715403,-0.014755936,0.84770465,10.045345,0.0030866198,0.012668213,0.02816065,28.40715928,76.94509359,1.64,Bad
1763092715502,-0.06773253,0.8254822,10.169865,0.020546796,-0.0064507313,0.039496828,28.40715928,76.94509359,1.64,Bad
1763092715604,0.0059883227,0.9947826,9.837132,0.021982366,0.0011532216,0.03150862,28.407168,76.94510259,1.58,Bad
1763092715705,-0.009074673,0.94170284,9.983676,0.0016383688,0.0012990608,0.031533986,28.407168,76.94510259,1.58,Bad
1763092715808,-0.026032211,1.0506192,10.090508,0.0044613173,0.007823801,0.03366451,28.407168,76.94510259,1.58,Bad
1763092715908,-0.01609974,0.71735555,10.106167,0.024417253,0.007849163,0.03774802,28.407168,76.94510259,1.58,Bad
1763092716008,0.018085493,1.022151,10.045,0.027071536,0.013869171,0.031001352,28.407168,76.94510259,1.58,Bad
1763092716109,-0.05515627,0.9775951,9.855278,0.029692845,0.013074027,0.03239634,28.407168,76.94510259,1.58,Bad
1763092716209,-0.18229629,1.3307484,9.655855,0.016072689,-0.0037343092,0.029696405,28.407168,76.94510259,1.58,Bad
1763092716310,-0.0985629,1.3094088,9.792893,0.0061124754,-0.010578627,0.04152083,28.407168,76.94510259,1.58,Bad
1763092716411,0.107436836,1.1338401,10.220769,0.01510888,0.0017619429,0.05030291,28.407168,76.94510259,1.58,Bad
1763092716511,0.013113412,1.453936,9.910614,0.027257957,0.021475993,0.03276745,28.407168,76.94510259,1.58,Bad
1763092716612,-0.020540137,1.3396541,9.880875,0.0354757,0.040669423,0.037266117,28.40717747,76.94511082,1.6,Bad
1763092716711,-0.16966014,1.4035112,10.006134,0.020333745,0.03418907,0.044956304,28.40717747,76.94511082,1.6,Bad
1763092716813,-0.32518658,1.3387734,9.860069,0.018127125,0.012313125,0.04109599,28.40717747,76.94511082,1.6,Bad
1763092716914,-0.299612,1.2925264,10.046586,0.0013986846,-0.004000625,0.045488935,28.40717747,76.94511082,1.6,Bad
1763092717016,-0.022398101,1.4720817,9.738439,7.531854E-4,0.0010517674,0.057074945,28.40717747,76.94511082,1.6,Bad
1763092717115,-0.12025339,1.3428457,9.930377,0.004274896,0.0024708507,0.053132202,28.40717747,76.94511082,1.6,Bad
1763092717217,-0.15400112,1.4333463,9.986813,-0.0033683698,0.016399171,0.047273252,28.40717747,76.94511082,1.6,Bad
1763092717318,-0.18810533,1.3382943,10.11974,-0.015479402,0.009573876,0.05035364,28.40717747,76.94511082,1.6,Bad
1763092717418,-0.07382493,1.2702436,9.860192,-0.03161187,0.019709898,0.05468945,28.40717747,76.94511082,1.6,Bad
1763092717519,-0.1843675,1.2154982,9.766126,-0.025802312,0.012617486,0.05474151,28.40718947,76.94512071,1.87,Bad
1763092717623,-0.43250403,1.2072616,9.671724,-5.8443773E-5,0.007899891,0.049237646,28.40718947,76.94512071,1.87,Bad
1763092717724,-0.048885245,1.2718797,10.11326,-0.010178448,0.0076716193,0.05697349,28.40718947,76.94512071,1.87,Bad
1763092717826,-0.16557926,1.2516321,10.025141,-0.022356693,0.01016738,0.06357178,28.40718947,76.94512071,1.87,Bad
1763092717928,-0.077553995,1.1852831,9.88666,-0.03648031,0.033035036,0.058926474,28.40718947,76.94512071,1.87,Bad
1763092718029,-0.3992525,1.2431909,9.856772,-0.040519435,0.031446017,0.056700833,28.40718947,76.94512071,1.87,Bad
1763092718131,-0.4059741,1.0778458,9.826293,-0.024432687,0.013657386,0.06311144,28.40718947,76.94512071,1.87,Bad
1763092718232,-0.30457407,1.172125,9.856031,-0.027629746,0.0019648506,0.073026,28.40718947,76.94512071,1.87,Bad
1763092718335,-0.32560578,0.9792719,10.045,-0.023012336,1.18676E-5,0.07066974,28.40718947,76.94512071,1.87,Bad
1763092718435,-0.184572,0.8215296,9.904682,-0.021504482,8.463239E-4,0.07060253,28.40718947,76.94512071,1.87,Bad
1763092718536,-0.2309245,0.696845,10.001043,-0.027248027,0.007595529,0.07711205,28.40720439,76.94513223,2.18,Bad
1763092718639,-0.23259564,0.6759758,10.074248,-0.016737428,0.014481698,0.073079266,28.40720439,76.94513223,2.18,Bad
1763092718740,-0.2763787,0.6748066,9.993498,-0.0017831564,0.023878844,0.068640664,28.40720439,76.94513223,2.18,Bad
1763092718842,-0.21554211,0.645462,9.929321,-0.003687949,0.027291492,0.07137484,28.40720439,76.94513223,2.18,Bad
1763092718943,-0.37968373,0.6655241,10.010625,0.0070433132,0.033085763,0.07257199,28.40720439,76.94513223,2.18,Bad
1763092719045,-0.42366356,0.63861775,10.093411,0.01961469,0.006731905,0.07638158,28.40720439,76.94513223,2.18,Bad
1763092719147,-0.5271853,0.64138967,10.086622,0.024569433,-0.017133802,0.07812659,28.40720439,76.94513223,2.18,Bad
1763092719248,-0.25170243,0.72417057,9.847134,0.02765743,-0.016224524,0.08351885,28.40720439,76.94513223,2.18,Bad
1763092719350,-0.26260033,0.69737375,10.005031,0.017484164,-0.023441684,0.08234706,28.40720439,76.94513223,2.18,Bad
1763092719451,-0.16958565,0.6959131,10.008945,0.019826476,-0.0075971577,0.074905425,28.40720439,76.94513223,2.18,Bad
1763092719552,-0.14462739,0.5685072,9.830305,0.011152186,-0.012543024,0.07840558,28.40722034,76.94514364,2.27,Bad
1763092719654,-0.4078648,0.4263327,9.823464,-0.016098268,-0.05236359,0.082187265,28.40722034,76.94514364,2.27,Bad
1763092719753,0.0092821065,0.18612896,10.630036,-0.018255427,8.196923E-4,0.07744684,28.40722034,76.94514364,2.27,Bad
1763092719855,0.336744,0.16786346,10.385877,0.018507577,0.026567366,0.067194946,28.40722034,76.94514364,2.27,Bad
1763092719956,-0.26328057,0.10020543,10.077043,0.021745218,0.03397602,0.059257466,28.40722034,76.94514364,2.27,Bad
1763092720058,-0.22834936,0.121570826,9.885641,0.011279004,0.01375884,0.067194946,28.40722034,76.94514364,2.27,Bad
1763092720157,-0.26146686,4.7938526E-4,10.215379,0.008243003,-0.013081997,0.06751326,28.40722034,76.94514364,2.27,Bad
1763092720259,-0.21086521,0.0025041308,10.182158,0.011998056,-0.02823537,0.056993783,28.40722034,76.94514364,2.27,Bad
1763092720360,0.16510798,0.18924308,10.021524,0.010543465,-0.03240258,0.067600764,28.40722034,76.94514364,2.27,Bad
1763092720459,0.018983796,0.32626447,9.851865,0.006725002,-0.012016732,0.060722206,28.40722034,76.94514364,2.27,Bad
1763092720560,0.04589057,0.46512917,9.867787,0.009597009,-0.0042024646,0.047709167,28.4072335,76.94515283,1.81,Bad
1763092720660,-0.016859282,0.44882825,10.117735,0.005343964,-3.4322034E-4,0.05228126,28.4072335,76.94515283,1.81,Bad
1763092720760,0.08821312,0.5704835,10.0874,0.0070712124,0.00161864,0.05797915,28.4072335,76.94515283,1.81,Bad
1763092720861,0.023714863,0.5852157,9.9814005,0.0062063206,0.0013307653,0.0472593,28.4072335,76.94515283,1.81,Bad
1763092720961,-0.0109582255,0.68113124,9.902083,0.009974056,-0.0059180995,0.04772599,28.4072335,76.94515283,1.81,Bad
1763092721061,-0.006926809,0.7279307,9.964366,0.022597428,-0.011111259,0.05174736,28.4072335,76.94515283,1.81,Bad
1763092721160,0.13211027,0.54413325,10.266462,0.025846481,0.0072645373,0.051880516,28.4072335,76.94515283,1.81,Bad
1763092721262,0.26487967,0.58294,10.20915,1.7646367E-5,0.0174619,0.046675943,28.4072335,76.94515283,1.81,Bad
1763092721363,-0.06650912,0.65966374,10.01322,-0.009626793,0.01235117,0.042479567,28.4072335,76.94515283,1.81,Bad
1763092721465,-0.085878275,0.7655952,9.8299465,-5.844395E-5,0.008610066,0.044900503,28.4072335,76.94515283,1.81,Bad
1763092721566,0.11115553,0.77858216,9.873655,0.003023212,-0.0063708387,0.04271925,28.40724531,76.94516052,1.49,Bad
1763092721668,0.07815211,0.74984497,9.993737,0.0029598025,-0.010894402,0.03759584,28.40724531,76.94516052,1.49,Bad
1763092721770,0.08817035,0.66069037,10.220258,-0.0046733175,-0.008741048,0.04138767,28.40724531,76.94516052,1.49,Bad
1763092721872,0.1480402,0.6186925,10.049911,-0.0027216026,3.7230973E-5,0.039422005,28.40724531,76.94516052,1.49,Bad
1763092721973,0.21313448,0.71213615,9.948143,4.399473E-4,0.012297907,0.029456722,28.40724531,76.94516052,1.49,Bad
1763092722075,0.026050456,0.71361333,9.790541,-0.0053847614,0.0051099136,0.027754836,28.40724531,76.94516052,1.49,Bad
1763092722175,0.015963783,0.7457869,10.003923,0.006139107,-0.006264311,0.032039985,28.40724531,76.94516052,1.49,Bad
1763092722275,0.1866673,0.74379635,10.047874,9.459474E-4,-0.0044000987,0.028311564,28.40724531,76.94516052,1.49,Good
1763092722377,0.23008534,0.60881114,10.012422,-0.0010476172,-0.0034375573,0.01755874,28.40724531,76.94516052,1.49,Good
1763092722478,0.14235379,0.46351966,10.059248,0.0020112111,-4.586239E-4,0.015262083,28.40724531,76.94516052,1.49,Good
1763092722577,0.088512555,0.22301935,10.1618395,0.0046211067,-0.013108628,0.016167557,28.4072563,76.94516845,1.27,Good
1763092722679,0.14277014,0.30416617,10.076081,0.006764315,-0.018122975,0.010659892,28.4072563,76.94516845,1.27,Good
1763092722778,0.2498568,0.56328535,9.784121,0.0025438427,-0.0012842031,0.018883979,28.4072563,76.94516845,1.27,Good
1763092722880,0.25587472,0.55119115,9.922299,-0.001610685,0.012138118,0.011906504,28.4072563,76.94516845,1.27,Good
1763092722981,0.20648988,0.52149594,10.16166,-3.3744145E-4,0.010892773,0.0019602398,28.4072563,76.94516845,1.27,Good
1763092723083,0.048017565,0.44401363,10.094324,0.004408054,0.012164749,0.011240714,28.4072563,76.94516845,1.27,Good
1763092723185,0.116000675,0.47137058,10.059194,3.7273424E-4,0.0061751776,0.016696384,28.4072563,76.94516845,1.27,Good
1763092723286,0.20429403,0.6722685,9.941185,-9.981585E-4,0.010939696,0.0067133442,28.4072563,76.94516845,1.27,Good
1763092723388,0.091054104,0.76596624,10.00544,4.932104E-4,0.011525591,0.0032246062,28.4072563,76.94516845,1.27,Good
1763092723489,0.05255117,0.783202,9.956771,0.00308662,0.0064795385,0.011699792,28.4072563,76.94516845,1.27,Good
1763092723588,0.057610884,0.8124268,9.979544,0.0023041584,7.397976E-4,0.010867871,28.40726554,76.94517568,0.91,Good
1763092723690,0.15205263,0.82931495,9.999247,-6.9252925E-4,6.9667975E-4,0.0062466576,28.40726554,76.94517568,0.91,Good
1763092723791,0.107790455,0.8987553,10.00341,0.0012921582,0.006438957,0.01068145,28.40726554,76.94517568,0.91,Good
1763092723893,0.081925,0.9663962,9.892529,0.0040504294,0.0090158805,0.010558438,28.40726554,76.94517568,0.91,Good
1763092723994,0.08092688,1.0779599,9.953048,0.0038487907,0.009874432,0.0067133442,28.40726554,76.94517568,0.91,Good
1763092724096,0.05773066,1.2029498,9.924508,0.0065867715,0.007544802,0.007996733,28.40726554,76.94517568,0.91,Good
1763092724198,0.065584406,1.3378123,9.928808,0.009840898,0.006252536,0.008923766,28.40726554,76.94517568,0.91,Good
1763092724299,0.0035928458,1.42525,9.94996,0.010847826,0.0047801896,0.007996733,28.40726554,76.94517568,0.91,Good
1763092724401,0.026344188,1.4703051,9.910386,0.010027319,7.9306064E-4,0.010734714,28.40726554,76.94517568,0.91,Good
1763092724503,0.050506245,1.5822401,9.915463,0.00787016,0.005160641,0.011054293,28.40726554,76.94517568,0.91,Good
1763092724604,0.06709932,1.7042927,9.861945,0.002300354,0.0083564315,0.010431621,28.40727181,76.94517964,0.71,Good
1763092724706,0.06048546,1.7928962,9.826114,-0.0019099733,0.014113927,0.010609165,28.40727181,76.94517964,0.71,Good
1763092724805,-0.059510484,1.8449248,9.7869835,-0.0012378427,0.012084855,0.009429766,28.40727181,76.94517964,0.71,Good
1763092724906,-0.0690924,1.913342,9.79306,-2.791056E-4,0.005932957,0.009190082,28.40727181,76.94517964,0.71,Good
1763092725008,0.012156681,1.7858295,9.852644,0.0011082734,0.003638836,0.010406258,28.40727181,76.94517964,0.71,Good
1763092725107,0.028946942,1.5794941,9.905706,-0.008108793,-5.915018E-5,0.011187451,28.40727181,76.94517964,0.71,Good
1763092725208,0.014223512,1.1015669,10.176805,-0.023821428,-0.0031750458,0.0065535544,28.40727181,76.94517964,0.71,Good
1763092725307,-0.13259012,0.7697274,10.13477,-0.03705733,-0.015292418,0.009616187,28.40727181,76.94517964,0.71,Good
1763092725410,0.11833627,0.97010916,9.725623,-0.016849026,-0.0020932963,0.018776186,28.40727181,76.94517964,0.71,Good
1763092725511,0.12518619,0.8207882,9.727702,0.0032096326,0.00446822,0.0071394495,28.40727181,76.94517964,0.71,Good
1763092725612,0.07084591,0.85596466,9.999126,0.0035938881,0.022534583,-0.0017935463,28.40728119,76.94518441,1.2,Good
1763092725714,-0.026641516,0.79266983,10.086568,4.6657881E-4,0.017570961,0.0122527145,28.40728119,76.94518441,1.2,Good
1763092725817,-0.16520368,0.76222694,10.011808,-0.011863846,0.001671903,0.010175451,28.40728119,76.94518441,1.2,Good
1763092725917,-0.0056998595,0.7579618,9.974999,-0.01398296,-0.0052890866,0.006348111,28.40728119,76.94518441,1.2,Good
1763092726020,0.13540405,0.6672009,10.05554,-0.0060188468,0.0035627459,0.008960543,28.40728119,76.94518441,1.2,Good
1763092726120,0.059310533,0.5964117,10.042137,-0.004007528,0.009767906,0.0040501854,28.40728119,76.94518441,1.2,Good
1763092726222,-0.070906535,0.6370778,10.023142,-0.0075660152,0.012008764,7.174322E-4,28.40728119,76.94518441,1.2,Good
1763092726323,-0.029493276,0.71396124,9.963771,-0.007922371,0.0065188524,0.0069530285,28.40728119,76.94518441,1.2,Good
1763092726422,-0.06120485,0.68091506,10.00799,-0.0061114235,-0.003814204,0.003544185,28.40728119,76.94518441,1.2,Good
1763092726523,-0.01622974,0.7139727,9.963973,-0.0020875172,-0.0031839227,-0.0017428193,28.40729242,76.94518978,1.32,Good
1763092726625,0.007579607,0.726566,9.917801,0.0029965797,-4.3199232E-4,0.0032778692,28.40729242,76.94518978,1.32,Good
1763092726728,0.02101995,0.75960654,9.95535,-8.700732E-4,0.0059469067,0.0013007908,28.40729242,76.94518978,1.32,Good
1763092726828,-1.771828E-4,0.79614896,10.037175,5.464736E-4,0.0083564315,-0.0023946592,28.40729242,76.94518978,1.32,Good
1763092726930,-0.10578412,1.2215745,9.896475,0.011838267,0.005213904,-0.0016223431,28.40729242,76.94518978,1.32,Good
1763092727031,-0.0062841214,1.3076949,9.877253,0.01318126,0.008305704,-0.0027319926,28.40729242,76.94518978,1.32,Good
1763092727134,-0.046652317,1.0262233,10.101534,4.741879E-4,0.003638836,-0.0052683344,28.40729242,76.94518978,1.32,Good
1763092727235,-0.053162884,0.82033193,10.076872,-0.0076027922,7.131659E-4,-0.007507924,28.40729242,76.94518978,1.32,Good
1763092727337,-0.0205416,0.8957895,9.915585,-0.007921103,0.0022438483,-0.005674149,28.40729242,76.94518978,1.32,Good
1763092727439,0.014252725,1.318021,9.807152,0.0037955274,0.0064123254,-0.011422766,28.40729242,76.94518978,1.32,Good
1763092727539,-0.07995969,1.3598696,9.815437,0.0029433165,0.0043616933,-0.016296346,28.4073044,76.94519581,1.37,Good
1763092727641,-0.13821071,1.0829289,10.057031,0.0011336368,-0.0055427207,-0.013942622,28.4073044,76.94519581,1.37,Good
1763092727743,0.004700025,0.84712034,10.088522,0.0029965797,-0.0069567314,-0.016429504,28.4073044,76.94519581,1.37,Good
1763092727844,0.0843935,1.1165241,9.878129,-0.0014280684,0.004120741,-0.020258112,28.4073044,76.94519581,1.37,Good
1763092727946,-0.09111912,1.4830906,9.9252205,0.0019046847,0.0013789556,-0.024951613,28.4073044,76.94519581,1.37,Good
1763092728047,-0.19377413,1.3752358,9.949993,0.0067643155,-0.013151745,-0.020334203,28.4073044,76.94519581,1.37,Good
1763092728149,-0.0343156,0.9122584,9.907559,-0.00878346,-0.017843978,-0.017848589,28.4073044,76.94519581,1.37,Good
1763092728249,0.055514846,0.9068686,10.070811,-0.017057005,-0.018328419,-0.021569401,28.4073044,76.94519581,1.37,Good
1763092728349,0.04818867,1.34055,9.758957,-2.5247387E-4,-0.002056519,-0.026016876,28.4073044,76.94519581,1.37,Good
1763092728451,0.001257252,1.486275,9.9392395,0.009960106,-0.0032853766,-0.023174906,28.4073044,76.94519581,1.37,Good
1763092728552,-0.09069205,1.2453582,10.040769,0.00568637,-0.007862206,-0.02071719,28.40731915,76.94520281,1.69,Good
1763092728654,0.0053894543,1.0809001,9.929658,-0.0041165906,-0.011680667,-0.024722073,28.40731915,76.94520281,1.69,Good
1763092728753,0.053299025,1.4068049,9.881928,5.464739E-4,-5.3851865E-4,-0.027881088,28.40731915,76.94520281,1.69,Good
1763092728854,0.091649495,1.6757458,9.781372,0.007417423,0.007291168,-0.031343196,28.40731915,76.94520281,1.69,Good
1763092728957,-0.10899465,1.4476478,9.953014,0.0031119832,0.0013561286,-0.027816411,28.40731915,76.94520281,1.69,Good
1763092729058,0.0058685513,1.0864582,10.147082,0.0029433167,-0.0052789412,-0.029771931,28.40731915,76.94520281,1.69,Good
1763092729159,0.071923874,1.3244005,9.910435,2.5352597E-4,-0.0066371523,-0.036056988,28.40731915,76.94520281,1.69,Good
1763092729259,0.0550635,1.7082657,9.717807,0.012264372,-0.015718523,-0.037255406,28.40731915,76.94520281,1.69,Good
1763092729360,-0.01983902,1.6301497,9.958582,0.02008011,-0.021978214,-0.042527195,28.40731915,76.94520281,1.69,Good
1763092729463,0.16906053,1.3254186,9.955769,0.012876899,-0.016778715,-0.049730405,28.40731915,76.94520281,1.69,Good
1763092729561,0.17968681,1.2653359,9.8537655,-0.0023031062,-0.01414726,-0.05696278,28.4073376,76.94521176,2.15,Good
1763092729662,0.13539967,1.5721323,9.78231,0.0031830007,-0.017689262,-0.059146572,28.4073376,76.94521176,2.15,Good
1763092729765,0.12163005,1.744747,9.892468,0.004912786,-0.0205325,-0.06297011,28.4073376,76.94521176,2.15,Good
1763092729866,0.3149423,1.5541468,9.932287,0.00920174,-0.014573365,-0.06955952,28.4073376,76.94521176,2.15,Good
1763092729968,0.35327283,1.3267361,9.842762,-0.0014534319,-0.003665828,-0.08024259,28.4073376,76.94521176,2.15,Good
1763092730069,0.17417943,1.3627937,9.981395,-0.014766689,-0.0069567314,-0.08862774,28.4073376,76.94521176,2.15,Good
1763092730171,0.2031961,1.6101211,10.062307,-0.007413835,-0.023525383,-0.090616226,28.4073376,76.94521176,2.15,Good
1763092730272,0.33701494,1.5277965,9.877477,0.0029433165,-0.031084951,-0.10037227,28.4073376,76.94521176,2.15,Good
1763092730372,0.4383123,1.2740954,9.979963,-0.017403217,-0.034174215,-0.11027922,28.4073376,76.94521176,2.15,Good
1763092730473,0.45993152,1.163544,9.800721,-0.026842212,-0.04018915,-0.11435638,28.4073376,76.94521176,2.15,Good
1763092730574,0.49180847,1.1028843,9.79854,-0.013728058,-0.036011793,-0.122796066,28.40735707,76.945225,2.66,Good
1763092730676,0.711337,1.073474,10.034041,-4.6425837E-4,-0.022079669,-0.1356363,28.40735707,76.945225,2.66,Good
1763092730775,0.5262132,1.084857,9.739951,-0.010372477,-0.025465684,-0.14572586,28.40735707,76.945225,2.66,Good
1763092730877,0.62197393,0.80201524,9.83279,-0.027203642,-0.015585366,-0.15129188,28.40735707,76.945225,2.66,Good
1763092730978,0.5373055,0.6839693,10.150761,-0.018878099,-0.022815207,-0.15514077,28.40735707,76.945225,2.66,Good
1763092731077,0.4683157,0.77134436,10.110456,-0.009333845,-0.018781155,-0.1535023,28.40735707,76.945225,2.66,Good
1763092731179,0.5516384,0.6451768,9.982878,-0.013301952,-0.022962315,-0.14814934,28.40735707,76.945225,2.66,Good
1763092731280,0.39580572,0.7743212,9.843307,-0.007043529,-0.035852004,-0.1498005,28.40735707,76.945225,2.66,Good
1763092731382,0.512892,0.6220038,10.096935,-0.014566318,-0.037170902,-0.14882527,28.40735707,76.945225,2.66,Good
1763092731484,0.60916984,0.6913953,9.9958935,-0.010406719,-0.035091102,-0.14375259,28.40735707,76.945225,2.66,Good
1763092731585,0.5057251,0.6667361,10.009685,-0.010612162,-0.028475054,-0.14932114,28.40737536,76.94524238,2.97,Good
1763092731687,0.66018474,0.7367531,9.789496,0.0020378425,-0.013348312,-0.14759009,28.40737536,76.94524238,2.97,Good
1763092731788,0.5164049,0.6903772,9.942773,-7.318425E-4,-0.008501363,-0.13938755,28.40737536,76.94524238,2.97,Good
1763092731888,0.3584713,0.7196342,10.040203,-0.012689426,-0.014673551,-0.13923791,28.40737536,76.94524238,2.97,Good
1763092731989,0.5014332,0.7534382,9.992779,-0.004167318,-0.008662421,-0.13457103,28.40737536,76.94524238,2.97,Good
1763092732090,0.4393361,0.749266,9.892077,-0.009893109,-0.009806311,-0.12918764,28.40737536,76.94524238,2.97,Good
1763092732192,0.26164576,0.7233749,10.024639,-0.008986367,-0.020481773,-0.13056362,28.40737536,76.94524238,2.97,Good
1763092732293,0.51633364,0.74116707,10.04054,-0.009413741,-0.01667726,-0.119280696,28.40737536,76.94524238,2.97,Good
1763092732395,0.4246581,0.6991207,9.956966,-0.011750979,-0.00939796,-0.11455929,28.40737536,76.94524238,2.97,Good
1763092732496,0.41897452,0.697421,9.977688,-0.0147933215,-0.019233894,-0.116484374,28.40737536,76.94524238,2.97,Good
1763092732598,0.4538829,0.7165478,9.908757,-0.017812835,-0.0103364065,-0.119403705,28.40739178,76.9452626,2.84,Good
1763092732701,0.3542966,0.68721175,9.934568,-0.010638793,-0.024586843,-0.115099534,28.40739178,76.9452626,2.84,Good
1763092732801,0.53778166,0.64677656,10.142917,-0.0050994228,-0.009167152,-0.11821543,28.40739178,76.9452626,2.84,Good
1763092732901,0.39716998,0.5559909,10.05596,-0.009493635,-0.018221892,-0.12167753,28.40739178,76.9452626,2.84,Good
1763092733002,0.46807906,0.5213937,9.942807,-0.004268771,-0.0163729,-0.11925153,28.40739178,76.9452626,2.84,Good
1763092733104,0.5198783,0.5010745,9.889773,-0.0065514785,-0.01660117,-0.1239184,28.40739178,76.9452626,2.84,Good
1763092733205,0.50116223,0.47851995,9.994855,-0.008135424,-0.009886206,-0.12886807,28.40739178,76.9452626,2.84,Good
1763092733307,0.5374252,0.5374259,10.100815,0.005927323,-0.011706031,-0.13127379,28.40739178,76.9452626,2.84,Good
1763092733408,0.38646445,0.5640727,9.917686,0.00853595,-0.003041888,-0.13387482,28.40739178,76.9452626,2.84,Good
1763092733508,0.37968296,0.6107874,9.924448,0.0027036322,-0.019367052,-0.13083881,28.40739178,76.9452626,2.84,Good
1763092733609,0.3221316,0.8193737,10.206097,0.005039603,-0.020811498,-0.1325927,28.40740391,76.94527751,2.15,Good
1763092733711,0.5420565,1.3009105,9.924017,0.018016795,-0.027702738,-0.13019966,28.40740391,76.94527751,2.15,Good
1763092733812,0.3750118,0.7505037,10.054822,0.008108577,-0.023601472,-0.13332823,28.40740391,76.94527751,2.15,Good
1763092733911,0.5071224,1.1167724,9.946965,-0.004833107,-0.023947684,-0.13123828,28.40740391,76.94527751,2.15,Good
1763092734011,0.41012016,1.523697,9.778278,0.016818374,-0.03377474,-0.13350198,28.40740391,76.94527751,2.15,Good
1763092734111,0.5459613,1.0287093,9.9573555,0.0066983704,-0.019952945,-0.13584554,28.40740391,76.94527751,2.15,Good
1763092734213,0.615956,1.4410822,9.928609,-0.0028357382,-0.021897051,-0.13645807,28.40740391,76.94527751,2.15,Good
1763092734315,0.4188257,1.5298318,9.872345,0.007753488,-0.017209893,-0.14446276,28.40740391,76.94527751,2.15,Good
1763092734417,0.5769506,1.2360672,9.862584,-0.0035585954,-0.030145235,-0.14623821,28.40740391,76.94527751,2.15,Good
1763092734517,0.6177088,1.6070129,9.977571,-0.0046466864,-0.022616105,-0.14426114,28.40740391,76.94527751,2.15,Good
1763092734618,0.6403198,1.4365834,9.98949,0.005127107,-0.012416206,-0.15041304,28.40741407,76.94530047,2.7,Good
1763092734719,0.5382038,1.2956548,9.795631,-0.009874087,-0.029308243,-0.15194498,28.40741407,76.94530047,2.7,Good
1763092734820,0.5982932,1.6580079,9.854776,-0.0039808964,-0.024293896,-0.15419471,28.40741407,76.94530047,2.7,Good
1763092734922,0.6066546,1.2779282,9.951517,-0.011040803,-0.033239573,-0.15833656,28.40741407,76.94530047,2.7,Good
1763092735023,0.651507,1.4294679,9.952763,-0.009600162,-0.036038425,-0.15715082,28.40741407,76.94530047,2.7,Good
1763092735125,0.90063965,1.6401844,9.740954,0.0053186,-0.01771716,-0.1635868,28.40741407,76.94530047,2.7,Good
1763092735224,0.59912926,1.0890052,9.889873,-0.0082419505,-0.023228632,-0.1685225,28.40741407,76.94530047,2.7,Good
1763092735325,0.8013427,1.6028062,9.8270645,-0.010825214,-0.021817157,-0.16271682,28.40741407,76.94530047,2.7,Good
1763092735428,0.67064303,1.3864536,9.839158,-0.007815845,-0.023494948,-0.16668493,28.40741407,76.94530047,2.7,Good
1763092735528,0.76570266,1.0195948,9.987561,-0.025751585,-0.025934909,-0.17177917,28.40742348,76.94533072,3.22,Good
1763092735628,0.83602166,1.7342669,9.752992,-0.008348477,-0.031511053,-0.16948125,28.40742348,76.94533072,3.22,Good
1763092735728,0.74146014,1.1007825,10.073926,-0.009307214,-0.027436422,-0.17406188,28.40742348,76.94533072,3.22,Good
1763092735828,0.9202826,1.0900029,9.918399,-0.024838503,-0.018934606,-0.17236252,28.40742348,76.94533072,3.22,Good
1763092735930,0.64620274,1.6949097,9.670211,-0.0063511073,-0.02791579,-0.17470104,28.40742348,76.94533072,3.22,Good
1763092736029,0.80607814,0.9595691,9.813717,-0.015246058,-0.026291264,-0.17768377,28.40742348,76.94533072,3.22,Good
1763092736131,0.80751544,1.248883,9.890312,-0.031458355,-0.024793554,-0.17081536,28.40742348,76.94533072,3.22,Good
1763092736231,0.71582854,1.6639595,10.0057745,-0.0032618432,-0.022935683,-0.1622641,28.40742348,76.94533072,3.22,Good
1763092736332,0.62344575,0.901436,9.8654995,-0.017935848,-0.022775894,-0.15640514,28.40742348,76.94533072,3.22,Good
1763092736434,0.68522626,1.4123145,9.90247,-0.02630958,-0.02334784,-0.1465933,28.40742348,76.94533072,3.22,Good
1763092736539,0.6443512,1.4304485,9.827123,-0.009802001,-0.001006674,-0.14019771,28.40742929,76.94536687,3.39,Good
1763092736641,0.43945017,0.90923685,9.831509,-0.023221008,-0.003409888,-0.12731133,28.40742929,76.94536687,3.39,Good
1763092736742,0.47135094,1.6241318,9.958699,-0.0064246617,-0.0021186594,-0.105022654,28.40742929,76.94536687,3.39,Good
1763092736844,0.27188644,1.2922412,9.84396,0.008311484,-0.013557561,-0.09307648,28.40742929,76.94536687,3.39,Good
1763092736946,0.36849838,1.1787982,9.80333,-0.01125132,-0.019553471,-0.08857448,28.40742929,76.94536687,3.39,Good
1763092737048,0.5279032,1.659468,9.934868,-0.0057905763,-0.022257213,-0.079304144,28.40742929,76.94536687,3.39,Good
1763092737148,0.4906316,1.3039557,9.863405,-0.004353739,-0.0070099947,-0.07829468,28.40742929,76.94536687,3.39,Good
1763092737248,0.40784153,1.4163679,9.869073,-0.00422058,-0.0066105206,-0.074805945,28.40742929,76.94536687,3.39,Good
1763092737347,0.3230299,1.657911,9.8227,-4.655264E-4,-0.009513363,-0.06830783,28.40742929,76.94536687,3.39,Good
1763092737449,0.30913612,1.2861327,9.954212,-0.018827373,-0.019847687,-0.06416219,28.40742929,76.94536687,3.39,Good
1763092737550,0.3342202,1.5907634,9.8801,-0.013142163,-0.013801049,-0.05927973,28.40742911,76.94540671,3.7,Good
1763092737650,0.2670356,1.5708354,9.824976,6.5299973E-4,-0.007862206,-0.045910675,28.40742911,76.94540671,3.7,Good
1763092737752,0.16175431,1.2710412,9.811261,-0.014211231,-0.003792645,-0.03225501,28.40742911,76.94540671,3.7,Good
1763092737853,0.13277188,1.6617153,9.8501,-0.009600162,-0.017183261,-0.019998137,28.40742911,76.94540671,3.7,Good
1763092737954,0.2100685,1.4148487,9.934744,-0.0040607913,-0.012442838,-0.016642557,28.40742911,76.94540671,3.7,Good
1763092738055,0.11600213,1.4123949,9.841613,-0.010482809,-0.016169993,-0.009351844,28.40742911,76.94540671,3.7,Good
1763092738158,0.17010489,1.5015534,9.969858,-0.008641425,-0.018727893,0.0010141842,28.40742911,76.94540671,3.7,Good
1763092738259,0.20889996,1.1628561,9.641152,-0.013272784,-0.005872445,0.0040146764,28.40742911,76.94540671,3.7,Good
1763092738358,0.045932923,1.2421757,9.943552,-0.027203642,-0.005731678,0.0070329234,28.40742911,76.94540671,3.7,Good
1763092738460,-0.005450079,1.0591611,9.729277,-0.025168227,-0.008231243,0.0202219,28.40742911,76.94540671,3.7,Good
1763092738559,-0.074175484,0.95631915,9.952271,-0.03561922,-0.0024559929,0.035102617,28.4074277,76.94545652,4.59,Good
1763092738660,-0.023870429,1.018251,9.9291935,-0.019187532,0.001938219,0.04679388,28.4074277,76.94545652,4.59,Good
1763092738762,-0.10558109,0.8846505,9.973435,-0.02230216,0.028063806,0.056111135,28.4074277,76.94545652,4.59,Good
1763092738861,-0.1335366,0.9222566,10.082621,0.0059526856,0.06185929,0.064876735,28.4074277,76.94545652,4.59,Good
1763092738962,-0.39394265,0.7616427,9.940236,0.020466901,0.06849056,0.07267979,28.4074277,76.94545652,4.59,Good
1763092739064,-0.42298198,0.06330081,10.563382,0.034587983,0.05147424,0.08393481,28.4074277,76.94545652,4.59,Good
1763092739165,-0.49581307,0.39667442,10.062955,-0.16446285,0.034322236,0.026234299,28.4074277,76.94545652,4.59,Good
1763092739266,-0.35707566,0.6663494,10.308439,0.35168397,0.046785817,0.14043054,28.4074277,76.94545652,4.59,Good
1763092739368,-0.28392592,0.8852143,9.933927,0.061929747,0.04635083,0.078938216,28.4074277,76.94545652,4.59,Good
1763092739467,-0.37728822,0.44927227,10.272331,0.027737325,0.04204539,0.07624842,28.4074277,76.94545652,4.59,Good
1763092739569,-0.56383616,0.48286888,10.36845,-0.026132036,0.0021677583,0.07150673,28.40743254,76.94551552,5.04,Good
1763092739669,-0.31338885,0.7451139,9.762933,-0.055592913,0.01418875,0.06583547,28.40743254,76.94551552,5.04,Good
1763092739769,-0.4467628,0.67266774,9.938619,-0.012210058,-0.06272327,0.06245326,28.40743254,76.94551552,5.04,Good
1763092739873,-0.25477117,0.4447384,9.650091,-0.034793645,-0.034200847,0.06426421,28.40743254,76.94551552,5.04,Good
1763092739974,-0.22982317,0.2011007,9.84693,-0.05124182,-0.03179386,0.06559706,28.40743254,76.94551552,5.04,Good
1763092740075,-0.30218998,0.5722801,9.840426,-0.05639059,-0.025985636,0.06308608,28.40743254,76.94551552,5.04,Good
1763092740175,-0.19945817,0.511087,10.153413,-0.065606385,0.0036160052,0.048125464,28.40743254,76.94551552,5.04,Good
1763092740278,-0.38225886,0.30392662,9.58968,-0.025320407,-0.042167496,0.068006575,28.40743254,76.94551552,5.04,Good
1763092740379,-0.34164694,0.42684603,10.136302,-0.024433954,-0.026957054,0.088818535,28.40743254,76.94551552,5.04,Good
1763092740482,-0.16049744,0.54173774,10.0927305,0.023326626,-0.023322476,0.09595706,28.40743254,76.94551552,5.04,Good
1763092740582,-0.2584896,0.16419894,12.073731,-0.100893244,0.019914538,0.043598097,28.4074371,76.94556839,4.94,Good
1763092740684,0.0979747,0.24433908,9.972298,0.60584825,0.4190409,-0.10621474,28.4074371,76.94556839,4.94,Good
1763092740786,-0.5972787,0.99942243,8.942727,0.068110816,-0.1481041,0.17092371,28.4074371,76.94556839,4.94,Good
1763092740889,-0.42417973,1.2905643,9.500808,0.027334047,0.022382399,0.09796078,28.4074371,76.94556839,4.94,Good
1763092740989,-0.7050182,0.88232917,10.652185,-0.030798905,-0.013295049,0.090203375,28.4074371,76.94556839,4.94,Good
1763092741091,-0.8846506,0.58470994,11.963206,-0.16586311,-0.13789304,0.106635064,28.4074371,76.94556839,4.94,Good
1763092741191,-0.023814548,1.6810377,10.325084,-0.13425052,0.08631435,0.06046557,28.4074371,76.94556839,4.94,Bad
1763092741293,-0.38015404,1.1757684,9.5603485,0.04155912,0.1029252,0.09478401,28.4074371,76.94556839,4.94,Bad
1763092741394,-0.6376972,1.103495,9.020664,0.10492074,0.10111044,0.107066244,28.4074371,76.94556839,4.94,Bad
1763092741497,-1.1343793,1.6756054,8.863264,0.071173444,-0.002509256,0.11100265,28.4074371,76.94556839,4.94,Bad
1763092741596,-0.84299076,1.2941146,10.236277,0.027739862,-0.041178323,0.094536714,28.40745447,76.94561928,4.79,Bad
1763092741697,0.007693681,1.515591,10.64671,-0.044514176,-0.03207032,0.08945769,28.40745447,76.94561928,4.79,Bad
1763092741799,-0.019403752,1.7423517,10.619017,-0.05235781,-0.0069123455,0.070137106,28.40745447,76.94561928,4.79,Bad
1763092741899,0.5027507,1.1369543,9.278986,-0.06360903,0.10012888,0.033717774,28.40745447,76.94561928,4.79,Bad
1763092741999,-0.27599943,1.5234619,9.336612,-0.08265061,0.08478909,-0.005004554,28.40745447,76.94561928,4.79,Bad
1763092742101,-0.31889844,1.2168435,9.777784,-0.032548983,0.024766563,-0.007398861,28.40745447,76.94561928,4.79,Bad
1763092742203,-0.30343336,1.1350522,10.356173,-0.024274167,-0.070393175,-0.025377719,28.40745447,76.94561928,4.79,Bad
1763092742305,0.48358685,1.464536,9.547639,0.0035685254,-0.042471856,-0.032128192,28.40745447,76.94561928,4.79,Bad
1763092742406,0.73055786,1.0192137,9.611978,0.02933522,0.052484974,-0.031183405,28.40745447,76.94561928,4.79,Bad
1763092742506,-0.45819554,1.0669464,10.30455,0.03687196,0.03397602,-0.04401983,28.40745447,76.94561928,4.79,Bad
1763092742607,-0.78865176,0.9788527,10.632851,0.049958214,-0.030728593,-0.0063082343,28.40746634,76.94567523,5.16,Bad
1763092742708,-0.24497226,0.96925086,9.744813,0.024807852,0.018183488,0.0077253445,28.40746634,76.94567523,5.16,Bad
1763092742808,-0.63402367,0.93357813,9.637409,0.0029965811,0.016638855,0.030548615,28.40746634,76.94567523,5.16,Bad
1763092742909,-1.253674,0.93202114,10.211666,-0.010939349,-0.04800108,0.06879284,28.40746634,76.94567523,5.16,Bad
1763092743008,-1.0901228,0.8328483,10.059194,-0.050745964,-0.08384213,0.095556326,28.40746634,76.94567523,5.16,Bad
1763092743109,-0.55370384,1.2527158,9.657149,-0.056578282,-0.03763632,0.12903222,28.40746634,76.94567523,5.16,Bad
1763092743209,-0.6129435,1.1182097,10.2263975,-0.018894583,0.07568108,0.1461297,28.40746634,76.94567523,5.16,Bad
1763092743311,-1.3168548,0.9412437,9.895882,0.02238818,0.08520758,0.14574546,28.40746634,76.94567523,5.16,Bad
1763092743412,-1.9403437,1.2593318,9.828769,0.067551546,-0.08741076,0.17044434,28.40746634,76.94567523,5.16,Bad
1763092743514,-1.3436623,1.2892907,11.057873,0.12299851,-0.021391053,0.19779499,28.40746634,76.94567523,5.16,Bad
1763092743615,-0.6767844,1.6924906,10.822765,0.26932642,0.030650875,0.19588892,28.40748158,76.94572894,5.48,Bad
1763092743717,-0.93321747,1.6935422,8.91468,0.16326548,0.13131447,0.2050654,28.40748158,76.94572894,5.48,Bad
1763092743818,-1.9753674,1.760791,9.026624,-0.049263474,-0.0653243,0.18503338,28.40748158,76.94572894,5.48,Bad
1763092743920,-0.72517157,1.3670999,11.197525,-0.13450992,-0.024641372,0.21032071,28.40748158,76.94572894,5.48,Bad
1763092744021,-0.75010943,1.8488394,10.663145,-0.2967952,-0.009593262,0.1990733,28.40748158,76.94572894,5.48,Bad
1763092744120,-0.3847113,1.6169454,9.276104,-0.16326442,0.018050328,0.12351949,28.40748158,76.94572894,5.48,Bad
1763092744220,-0.84243023,1.5043608,8.652269,0.008402794,0.020953173,0.121309064,28.40748158,76.94572894,5.48,Bad
1763092744322,-0.8354834,1.8551786,8.813844,0.10596064,0.010005052,0.13527036,28.40748158,76.94572894,5.48,Bad
1763092744423,-0.6457016,1.5715425,9.85934,0.0794026,0.022311384,0.12754086,28.40748158,76.94572894,5.48,Bad
1763092744530,-0.6584575,2.0368757,10.359347,0.0081631085,-0.002642415,0.12258738,28.40751085,76.9457817,5.83,Bad
1763092744631,-0.35116664,1.971686,10.31202,-0.019444166,-0.0052740993,0.097604536,28.40751085,76.9457817,5.83,Bad
1763092744732,-0.16093855,1.9350766,9.858731,-0.015911847,-7.2494027E-4,0.07166779,28.40751085,76.9457817,5.83,Bad
1763092744831,-0.12157091,2.0747242,9.620282,0.008296266,0.008223274,0.054676834,28.40751085,76.9457817,5.83,Bad
1763092744933,-0.14504659,1.8992028,9.772319,0.0052678734,-0.0041984594,0.038382106,28.40751085,76.9457817,5.83,Bad
1763092745035,0.088033475,2.1312575,9.775629,-0.0010476173,-0.0077239745,0.024660498,28.40751085,76.9457817,5.83,Bad
1763092745136,-0.04614756,2.0603342,9.775098,8.9268433E-4,-0.0070632575,0.016620295,28.40751085,76.9457817,5.83,Bad
1763092745238,0.22164129,2.050949,9.776946,-0.0058413027,0.0056171822,0.005409664,28.40751085,76.9457817,5.83,Bad
1763092745339,0.22876213,2.142294,9.908333,-0.0022764746,0.012164748,-0.0048447647,28.40751085,76.9457817,5.83,Bad
1763092745442,0.09672146,2.051228,9.8902235,0.0013187892,-0.011191154,-0.009505292,28.40751085,76.9457817,5.83,Bad
1763092745545,0.34141982,2.164226,9.772474,0.003974339,0.0059215436,-0.021982824,28.40754255,76.94583927,6.64,Bad
1763092745646,0.18950376,2.088901,9.820838,-0.0057905787,0.02514701,-0.04886805,28.40754255,76.94583927,6.64,Bad
1763092745748,0.097315945,2.0317254,9.786348,-0.011319801,0.0032076587,-0.016276056,28.40754255,76.94583927,6.64,Good
1763092745849,0.1885523,2.0089455,9.754622,-0.016630901,0.0028969564,-0.013313609,28.40754255,76.94583927,6.64,Good
1763092745948,0.12546282,1.8217018,9.908578,-0.019187534,0.012111486,-0.016562663,28.40754255,76.94583927,6.64,Good
1763092746051,0.010060645,1.6082647,9.834079,7.785484E-4,-0.0060246256,-0.0112541,28.40754255,76.94583927,6.64,Good
1763092746152,-0.05225032,1.5676641,9.8058405,-0.0019835273,-0.008527995,6.679736E-4,28.40754255,76.94583927,6.64,Good
1763092746253,0.117797285,1.3015237,10.092072,0.0036446154,-0.0015353005,0.003608862,28.40754255,76.94583927,6.64,Good
1763092746353,0.005090025,0.62599874,9.823718,-0.03926775,-0.016783787,0.0032778692,28.40754255,76.94583927,6.64,Good
1763092746454,-0.15320262,0.67198336,10.153128,-0.07282355,0.054322552,0.015741453,28.40754255,76.94583927,6.64,Good
1763092746555,0.4127406,0.60665524,10.1565695,-0.0048014023,0.014798738,0.15505382,28.40757862,76.94591203,7.94,Good
1763092746654,-0.009163072,0.7255907,9.842523,0.031945117,-0.007542626,-0.002128343,28.40757862,76.94591203,7.94,Good
1763092746756,0.017674837,0.60605067,10.123127,0.0311728,0.016692119,6.147104E-4,28.40757862,76.94591203,7.94,Good
1763092746858,-0.042100906,0.5986903,10.028711,-0.010381355,0.007925254,0.0072358306,28.40757862,76.94591203,7.94,Good
1763092746959,0.036834493,0.29101878,10.175519,-0.03410122,0.012138118,0.0068731336,28.40757862,76.94591203,7.94,Good
1763092747059,-0.15901048,0.037273347,9.825136,-0.13567409,-0.0435219,1.6197383E-4,28.40757862,76.94591203,7.94,Good
1763092747160,-0.095325805,-0.01583616,10.276071,0.12137398,0.024734851,0.013504399,28.40757862,76.94591203,7.94,Good
1763092747260,0.040662874,0.13947701,10.187531,0.006911423,-0.0027489406,0.01337124,28.40757862,76.94591203,7.94,Good
1763092747360,-0.06552839,0.23820141,9.965534,0.023301262,0.009776783,0.011851972,28.40757862,76.94591203,7.94,Good
1763092747462,-0.16421041,0.5870722,9.879054,0.034156807,-0.0010280323,0.016468115,28.40757862,76.94591203,7.94,Good
1763092747563,-0.24617001,0.7225736,10.120048,0.009361529,-0.014706523,0.020854717,28.40760792,76.94598769,8.16,Good
1763092747666,-0.0073065804,0.58731174,10.282632,-0.002620149,0.0039431974,0.019587815,28.40760792,76.94598769,8.16,Good
1763092747767,-0.09303049,0.7046645,9.735573,5.4647366E-4,0.0029502197,0.01470282,28.40760792,76.94598769,8.16,Good
1763092747869,-0.083406836,0.6097343,10.13649,0.0051004747,-0.006077889,0.012572293,28.40760792,76.94598769,8.16,Good
1763092747971,0.0035315019,0.50076926,10.08525,-0.005790576,0.007062898,0.01332305,28.40760792,76.94598769,8.16,Good
1763092748072,-0.074020654,0.39243957,10.095366,-0.009747269,0.004678736,0.012308514,28.40760792,76.94598769,8.16,Good
1763092748173,-0.0022304414,0.27490425,10.208965,0.0143949,0.01488117,0.01033524,28.40760792,76.94598769,8.16,Good
1763092748275,-0.098454535,0.30757973,10.075482,0.020993192,0.008102798,0.010609165,28.40760792,76.94598769,8.16,Good
1763092748376,-0.15725213,1.3513297,9.988353,0.047178384,-0.0068768365,0.0130250305,28.40760792,76.94598769,8.16,Good
1763092748479,-0.07875172,1.0543702,9.602376,0.014474793,-0.015130092,0.014033226,28.40760792,76.94598769,8.16,Good
1763092748579,0.01750373,1.5700597,9.923676,-0.037190486,0.004068746,0.0089770295,28.40764202,76.94605552,7.73,Good
1763092748679,-0.0011981064,1.0149046,9.662143,-0.06643197,-0.004906099,0.004715975,28.40764202,76.94605552,7.73,Good
1763092748780,-0.22535501,1.609642,9.663939,-0.03153444,-0.0436893,0.0069314693,28.40764202,76.94605552,7.73,Good
1763092748882,0.27450436,1.3545806,9.870917,0.03396912,-0.0056517837,-0.0011163428,28.40764202,76.94605552,7.73,Good
1763092748984,0.18157691,1.7634917,9.648608,0.026801415,0.012262398,-0.009148937,28.40764202,76.94605552,7.73,Good
1763092749085,0.03718088,1.4099048,10.360907,0.004887422,-0.0032815724,-0.012514662,28.40764202,76.94605552,7.73,Good
1763092749186,0.20672943,1.7878656,9.58417,-0.019334642,0.0016351265,-0.0070945,28.40764202,76.94605552,7.73,Good
1763092749288,0.18119477,1.6010298,10.080807,0.006698371,0.019035699,-0.006842134,28.40764202,76.94605552,7.73,Good
1763092749388,-0.01054048,1.6050906,9.829766,0.01860269,0.0077705365,-0.0104906615,28.40764202,76.94605552,7.73,Good
1763092749490,0.022578469,1.6951782,10.028693,0.019188585,-0.0064507313,-0.010783609,28.40764202,76.94605552,7.73,Good
1763092749589,0.11767751,1.5733505,9.906661,-4.6425752E-4,-0.008180516,-0.0054712417,28.40768771,76.94612969,8.09,Good
1763092749689,0.03379633,1.6924906,10.153376,-5.7205313E-4,-0.022403052,-0.0063627656,28.40768771,76.94612969,8.09,Good
1763092749788,0.1388775,1.6048511,10.236459,0.022863744,-0.015558734,-0.008732976,28.40768771,76.94612969,8.09,Good
1763092749890,0.20948422,1.7005534,9.856978,0.056579337,0.0023110611,-0.014192452,28.40768771,76.94612969,8.09,Good
1763092749991,0.07159815,1.6472102,9.776058,0.030707382,-0.011528487,-0.009098209,28.40768771,76.94612969,8.09,Good
1763092750093,0.22511472,1.6652172,10.22005,-0.02288552,0.005439639,-0.008692395,28.40768771,76.94612969,8.09,Good
1763092750194,0.10967262,1.6102694,9.58654,-0.04789638,-0.004479993,-0.0040458175,28.40768771,76.94612969,8.09,Good
1763092750294,0.084200695,1.6836624,9.752632,-0.02635143,0.0019115873,-0.010996661,28.40768771,76.94612969,8.09,Good
1763092750395,0.15426844,1.6090432,9.722629,-0.00292451,-0.0032346498,-0.009783022,28.40768771,76.94612969,8.09,Good
1763092750497,0.12718242,1.6700424,9.69639,0.002810159,0.006918326,-0.013846241,28.40768771,76.94612969,8.09,Good
1763092750598,0.044914857,1.5944906,9.724964,-0.016443212,6.2594874E-5,-0.0047610654,28.40772975,76.94620677,9.01,Good
1763092750700,0.06410149,1.5563712,9.9936,-0.012503005,-0.0034679933,-5.1079307E-5,28.40772975,76.94620677,9.01,Good
1763092750802,0.04279397,1.6645628,9.904421,0.007390791,0.016479066,-2.3750048E-4,28.40772975,76.94620677,9.01,Good
1763092750903,-0.051389225,1.638563,10.082562,0.026699962,-0.0071913432,-0.002275451,28.40772975,76.94620677,9.01,Good
1763092751005,0.05156231,1.6274285,9.932353,0.0154893305,0.0021677583,-0.0017428193,28.40772975,76.94620677,9.01,Good
1763092751104,0.062016238,1.6376867,9.875383,0.006698371,0.0025241144,9.342895E-4,28.40772975,76.94620677,9.01,Good
1763092751205,-0.05185663,1.6218531,9.853532,-0.011171425,-0.0021097818,-4.2392153E-4,28.40772975,76.94620677,9.01,Good
1763092751304,0.08581764,1.6490477,10.061769,-0.012742689,0.0039089574,-2.64132E-4,28.40772975,76.94620677,9.01,Good
1763092751406,-0.091387875,1.5960478,9.600759,0.008590481,0.006048361,-5.253752E-4,28.40772975,76.94620677,9.01,Good
1763092751509,-0.010386476,1.6129501,9.959892,0.0017182636,-0.0044267303,0.004449659,28.40772975,76.94620677,9.01,Good
1763092751609,0.014971377,1.6625223,9.925885,-0.0037868666,0.012186308,0.0019095128,28.40777903,76.94629869,9.84,Good
1763092751711,-0.2247818,1.5887102,9.858085,-0.003954265,-0.01800884,0.0077253445,28.40777903,76.94629869,9.84,Good
1763092751813,0.1154018,1.6649777,9.921274,0.0076266713,0.0021423944,0.00804746,28.40777903,76.94629869,9.84,Good
1763092751914,-0.2084127,1.5485574,9.779833,0.011518688,-0.016810419,0.009935766,28.40777903,76.94629869,9.84,Good
1763092752016,0.0149830505,1.6632774,10.011575,-0.0044336333,-0.0070898887,0.009190082,28.40777903,76.94629869,9.84,Good
1763092752117,-0.06348348,1.5981321,9.869131,-0.005359398,-0.006405077,0.009696082,28.40777903,76.94629869,9.84,Good
1763092752219,-0.025155813,1.623197,9.821397,-5.98685E-4,0.0027904296,0.00748566,28.40777903,76.94629869,9.84,Good
1763092752320,-0.026616467,1.6320778,9.866093,-0.0074138343,-5.2076374E-4,0.005739389,28.40777903,76.94629869,9.84,Good
1763092752422,-0.085518956,1.5544862,9.77503,-0.012689426,-0.011807485,0.011268614,28.40777903,76.94629869,9.84,Good
1763092752527,-0.010614616,1.6633122,9.995938,0.011092583,-0.00810189,0.009483029,28.40782881,76.94639244,10.51,Good
1763092752628,-0.13478026,1.5326446,9.782969,0.011989179,-0.0045535476,0.008250367,28.40782881,76.94639244,10.51,Good
1763092752729,-0.0035337028,1.6180263,10.010625,-0.0061963904,-0.009753048,0.009848262,28.40782881,76.94639244,10.51,Good
1763092752831,-0.027440004,1.5605347,9.797456,-0.0013177377,-0.014999471,0.009696082,28.40782881,76.94639244,10.51,Good
1763092752933,0.019657155,1.4064938,9.800773,-0.011491005,0.0042817984,0.010255345,28.40782881,76.94639244,10.51,Good
1763092753033,0.001953993,1.3771054,9.890457,-0.01760993,-0.0048579085,0.009417084,28.40782881,76.94639244,10.51,Good
1763092753136,-0.028207125,1.3741665,9.820663,-6.418022E-4,-0.010995856,0.009975079,28.40782881,76.94639244,10.51,Good
1763092753237,0.05919646,1.231898,9.990691,0.008695739,0.011818538,0.007698713,28.40782881,76.94639244,10.51,Good
1763092753340,0.010779283,0.7058879,9.921214,-0.01636712,-0.010590041,0.007210467,28.40782881,76.94639244,10.51,Good
1763092753440,0.015108247,0.5914496,10.112975,-0.051891122,-0.0028554664,0.007911765,28.40782881,76.94639244,10.51,Good
1763092753547,0.1705577,0.7134337,9.929897,0.0013111811,-0.0038433718,0.002949413,28.40787785,76.9464902,11.31,Good
1763092753649,0.24106099,0.6209628,10.06338,0.03040302,0.008965154,-0.008895302,28.40787785,76.9464902,11.31,Good
1763092753750,0.08941817,0.63970697,9.983063,-0.007656055,-0.006317573,-0.00543066,28.40787785,76.9464902,11.31,Good
1763092753851,0.35876343,0.6787942,9.97348,-0.013196694,0.022204857,-0.00790613,28.40787785,76.9464902,11.31,Good
1763092753953,-0.019942729,0.6353411,9.872705,0.0025286244,-0.0075464305,-0.0055219685,28.40787785,76.9464902,11.31,Good
1763092754054,0.28882018,0.6412984,10.17269,0.0018247899,0.008649379,-0.0068421345,28.40787785,76.9464902,11.31,Good
1763092754153,0.09438148,0.4675378,10.025717,0.0018514215,-0.010019363,-0.006016555,28.40787785,76.9464902,11.31,Good
1763092754255,0.17355205,0.64037156,10.261851,0.0018184489,-0.013709741,-0.001844273,28.40787785,76.9464902,11.31,Good
1763092754357,0.063531145,1.1093293,9.91358,0.030134168,-0.0066371523,-0.004338765,28.40787785,76.9464902,11.31,Good
1763092754460,0.25464776,1.2685493,10.042658,0.03540722,0.004175273,-0.007241608,28.40787785,76.9464902,11.31,Good
1763092754560,0.07603855,1.1187443,10.154778,0.020206926,-0.0010280327,-0.0067647756,28.40792646,76.94658795,11.52,Good
1763092754662,0.19666842,1.3461394,9.984874,0.0095289275,0.0022945756,-0.0034168048,28.40792646,76.94658795,11.52,Good
1763092754761,0.050272536,1.4390372,9.868372,0.0068315286,0.0048144306,-0.0030870803,28.40792646,76.94658795,11.52,Good
1763092754862,0.047935497,1.3514562,10.070468,-0.007363106,-0.009593259,0.0053285016,28.40792646,76.94658795,11.52,Good
1763092754964,-0.0048234635,1.3979051,9.508583,-0.0013443677,0.008809169,0.0074057654,28.40792646,76.94658795,11.52,Good
1763092755065,-0.22006597,1.469302,9.824318,-0.032092437,-0.01436919,0.016797839,28.40792646,76.94658795,11.52,Good
1763092755168,-0.032518987,1.3957857,9.729995,-0.02689294,-0.0034629204,0.016493477,28.40792646,76.94658795,11.52,Good
1763092755268,-0.075919926,1.5183858,9.694678,0.025340483,0.004281799,0.009536292,28.40792646,76.94658795,11.52,Good
1763092755369,0.020358283,1.4510146,10.203739,0.007231002,0.0031899037,0.009083555,28.40792646,76.94658795,11.52,Good
1763092755472,0.059562325,1.4100578,9.82017,-0.0027216026,0.012896484,0.0121056065,28.40792646,76.94658795,11.52,Good
1763092755574,-0.13254337,1.4556303,9.91447,-0.008162055,0.0059862207,0.010894503,28.40796881,76.94669412,11.85,Good
1763092755675,-0.07142945,1.5107263,9.837347,-0.002467968,0.0044251024,0.010964253,28.40796881,76.94669412,11.85,Good
1763092755776,-0.0334173,1.4593858,9.977807,0.0018184485,0.0053889127,0.010076533,28.40796881,76.94669412,11.85,Good
1763092755876,-0.0056297444,1.4593258,9.757303,-0.0038477385,0.009954328,0.008337871,28.40796881,76.94669412,11.85,Good
1763092755977,-0.12879157,1.5080624,9.982136,-0.0017971061,0.00614601,0.010175451,28.40796881,76.94669412,11.85,Good
1763092756079,0.011126916,1.5021961,9.977161,0.013622585,0.015760014,0.007911766,28.40796881,76.94669412,11.85,Good
1763092756178,-0.0756376,1.4802264,9.964453,0.00813394,0.0072658043,0.005993023,28.40796881,76.94669412,11.85,Good
1763092756280,-0.102570675,1.5625504,9.901149,-3.9421393E-5,0.0026839036,0.007112818,28.40796881,76.94669412,11.85,Good
1763092756382,0.038087744,1.456631,9.926844,-0.0056891227,0.0048562805,0.0024167811,28.40796881,76.94669412,11.85,Good
1763092756482,-0.03148951,1.3932505,9.671637,-0.014819953,-0.0033348356,8.543947E-4,28.40796881,76.94669412,11.85,Good
1763092756582,0.037788313,1.4430964,9.878335,-0.018282058,0.009741275,0.0014669212,28.40803774,76.94680377,12.54,Good
1763092756683,-0.041561928,1.4320772,9.785749,0.0013365442,0.003182295,4.3843462E-4,28.40803774,76.94680377,12.54,Good
1763092756783,0.01410665,1.3776896,9.725695,0.007790266,0.003642641,0.0014669212,28.40803774,76.94680377,12.54,Good
1763092756883,0.011068499,1.4153746,9.963665,-0.011570898,0.015467065,8.207855E-5,28.40803774,76.94680377,12.54,Good
1763092756986,-0.09695736,1.3506908,10.066859,0.0030612566,-0.011604577,0.00507994,28.40803774,76.94680377,12.54,Good
1763092757087,-0.0810531,1.3380405,10.208451,0.026379114,-0.01063189,0.0051420806,28.40803774,76.94680377,12.54,Good
1763092757189,-0.061204847,1.5092715,10.250532,0.027993497,-0.019391147,0.0017826958,28.40803774,76.94680377,12.54,Good
1763092757287,-0.0894715,1.3977621,9.984096,0.0087223705,-0.031271372,0.0041300803,28.40803774,76.94680377,12.54,Good
1763092757389,0.13476811,1.2292173,9.7399645,-0.029946694,-0.006983363,0.0031180796,28.40803774,76.94680377,12.54,Good
1763092757490,0.046471916,1.3831496,9.388041,-0.022889324,-0.014227155,0.0018930266,28.40803774,76.94680377,12.54,Good
1763092757590,0.16642405,1.3280857,10.100908,-0.007496266,0.0032165346,0.0019729212,28.4080983,76.94692136,13.01,Good
1763092757691,0.016502144,1.3463147,9.765658,0.004278701,0.004653373,9.7106636E-4,28.4080983,76.94692136,13.01,Good
1763092757790,0.033057228,1.2854141,9.996792,-0.007309845,0.014748014,-5.107934E-5,28.4080983,76.94692136,13.01,Good
1763092757892,0.06629449,1.4286038,9.808986,0.0069672232,0.0205816,-9.058266E-4,28.4080983,76.94692136,13.01,Good
1763092757992,-0.009163074,1.254153,10.033742,0.0021443688,0.026226228,0.002905027,28.4080983,76.94692136,13.01,Good
1763092758092,-0.09827773,1.3427173,9.775497,-0.0051526865,0.022124963,0.0070062918,28.4080983,76.94692136,13.01,Good
1763092758195,-0.25823295,1.3027214,10.123872,-0.0028230562,-0.023271749,0.013957135,28.4080983,76.94692136,13.01,Good
1763092758295,-0.19888783,1.3415766,9.906678,0.024355114,-0.02152421,0.010628187,28.4080983,76.94692136,13.01,Good
1763092758397,-0.18530232,1.379384,10.502998,0.024594797,-0.009646522,0.0061008176,28.4080983,76.94692136,13.01,Good
1763092758499,0.020884134,1.3307734,10.008361,0.035982974,-0.005923172,0.0072358306,28.4080983,76.94692136,13.01,Good
1763092758600,0.06868997,1.2845757,10.003019,1.698268E-4,0.0126935765,0.007286557,28.40815642,76.9470451,13.67,Good
1763092758700,-0.050844397,1.3093688,9.839468,-0.031145116,0.010486959,0.007112818,28.40815642,76.9470451,13.67,Good
1763092758801,-0.15633957,1.2346927,9.667815,-0.026830798,-0.008501363,0.010681451,28.40815642,76.9470451,13.67,Good
1763092758903,-0.11700197,1.1833638,9.588218,-0.013009005,0.01016738,0.007272607,28.40815642,76.9470451,13.67,Good
1763092759003,-0.1298353,1.1774977,10.073566,-0.006627569,-0.0163729,0.008630819,28.40815642,76.9470451,13.67,Good
1763092759103,0.048636608,1.1830132,9.603934,0.0018514214,0.034748334,0.0029849217,28.40815642,76.9470451,13.67,Good
1763092759203,-0.17271438,1.121204,10.025657,-0.015086268,-0.023468316,0.013131557,28.40815642,76.9470451,13.67,Good
1763092759304,0.027008649,1.2555305,10.189447,0.025812242,0.0076716198,0.005308211,28.40815642,76.9470451,13.67,Good
1763092759406,-0.123316176,1.2300729,10.627604,0.05516786,-0.023361789,0.001413658,28.40815642,76.9470451,13.67,Good
1763092759508,0.051324222,1.2022355,10.106985,0.020520166,-0.022216631,0.0032246062,28.40815642,76.9470451,13.67,Good
1763092759608,0.0250908,1.1700425,9.893728,-0.045915503,-0.024413103,0.0032030472,28.40822622,76.94717726,14.27,Good
1763092759711,0.018804137,1.2062435,9.445771,-0.010761806,-0.021217313,0.0015036982,28.40822622,76.94717726,14.27,Good
1763092759812,0.22596739,1.1841024,9.908161,0.011012687,0.012830539,-0.0043121334,28.40822622,76.94717726,14.27,Good
1763092759912,0.1264809,1.2040277,10.13531,-0.005898371,0.010966327,-0.0016756061,28.40822622,76.94717726,14.27,Good
1763092760013,0.1521724,1.1285701,9.64292,-0.013780052,0.026846364,-0.002452995,28.40822622,76.94717726,14.27,Good
1763092760114,0.08657336,1.2426776,9.858313,0.0019313155,0.022870647,-0.004525186,28.40822622,76.94717726,14.27,Good
1763092760216,-0.010549243,1.2178353,9.887712,0.010959424,0.0033230614,-8.766585E-4,28.40822622,76.94717726,14.27,Good
1763092760317,0.0031225195,1.2619472,10.060711,-0.022251435,-7.490348E-4,0.0022392373,28.40822622,76.94717726,14.27,Good
1763092760419,-0.04120261,1.139769,9.509431,-0.013399602,-0.0029049255,-6.521923E-4,28.40822622,76.94717726,14.27,Good
1763092760520,-0.009416876,1.2208902,9.619963,-0.022409955,-0.0013108347,-6.369743E-4,28.40829534,76.94730685,14.61,Good
1763092760623,0.04329791,1.1992966,9.739337,-0.012385065,0.008965154,0.0014529712,28.40829534,76.94730685,14.61,Good
1763092760724,5.096215E-5,1.1940836,9.964684,0.0011856323,7.1316643E-4,-0.0018087638,28.40829534,76.94730685,14.61,Good
1763092760825,0.0709058,1.1544414,10.502836,0.035729337,0.007062898,-0.0041777072,28.40829534,76.94730685,14.61,Good
1763092760925,-0.027728042,1.2319949,10.382044,0.03620617,4.4685035E-4,-0.0018620272,28.40829534,76.94730685,14.61,Good
1763092761026,0.07921584,1.214274,10.242103,0.013755741,-0.004559888,-6.902375E-4,28.40829534,76.94730685,14.61,Good
1763092761127,-0.032459103,1.1700119,10.081592,-0.0052325805,-0.01926433,-4.3470245E-5,28.40829534,76.94730685,14.61,Good
1763092761229,0.008092933,1.1750909,9.630229,-0.0073631085,-0.027942423,0.0016799739,28.40829534,76.94730685,14.61,Good
1763092761331,0.009374133,1.1834222,9.874156,-0.012742689,-0.02956695,0.003943659,28.40829534,76.94730685,14.61,Good
1763092761433,0.019598737,1.1467888,9.943333,0.010568828,-0.008738511,0.005866206,28.40829534,76.94730685,14.61,Good
1763092761533,-0.02413797,1.1920723,9.984748,0.0057130014,-0.0014972558,0.011347241,28.40837312,76.94743444,15.12,Good
1763092761633,-0.06576765,1.1248429,9.871202,-0.014718499,-0.0039955517,0.013348414,28.40837312,76.94743444,15.12,Good
1763092761734,-0.12160513,1.2269359,9.857514,-8.383686E-4,-0.006317573,0.012865241,28.40837312,76.94743444,15.12,Good
1763092761836,0.005329577,1.1133589,9.899775,-0.0035078686,0.0010517678,0.010304804,28.40837312,76.94743444,15.12,Good
1763092761938,-0.11076844,1.159121,10.178452,0.0035824745,0.009554854,0.009589556,28.40837312,76.94743444,15.12,Good
1763092762039,-0.030303175,1.159891,9.888755,0.020562014,0.0090158805,0.007134377,28.40837312,76.94743444,15.12,Good
1763092762140,-0.11186046,1.1872783,10.121942,-0.007951806,0.008440533,0.008350486,28.40837312,76.94743444,15.12,Good
1763092762239,2.5963003E-4,1.21246,9.978798,0.030022569,0.010613776,0.0073626474,28.40837312,76.94743444,15.12,Good
1763092762341,-0.073062465,1.1573159,10.120996,-0.012004613,-0.0021186594,0.0075655547,28.40837312,76.94743444,15.12,Good
1763092762440,-0.096298605,1.1356367,9.825335,-0.012822582,-0.029593581,0.010761346,28.40837312,76.94743444,15.12,Good
1763092762541,-0.10894331,1.0888536,9.703463,-0.015858585,-0.03792927,0.009882503,28.40844124,76.94756703,15.41,Good
1763092762643,0.07977783,1.1334677,9.3390875,-0.014766689,-0.0143869445,0.0051687118,28.40844124,76.94756703,15.41,Good
1763092762745,0.12237061,1.1790402,10.13205,-0.01829474,-0.0045028203,0.0061959303,28.40844124,76.94756703,15.41,Good
1763092762846,0.18738593,1.166239,9.953134,0.018685121,3.162287E-4,0.0030762302,28.40844124,76.94756703,15.41,Good
1763092762948,0.1120681,1.154273,10.006376,0.021638691,0.0011659032,0.0026387111,28.40844124,76.94756703,15.41,Good
1763092763047,0.035512604,1.1777374,10.043743,-0.005818476,-0.009912837,0.003996922,28.40844124,76.94756703,15.41,Good
1763092763149,0.12666056,1.0840142,9.465115,-0.031762715,0.0024974823,0.0025943252,28.40844124,76.94756703,15.41,Good
1763092763250,0.11024298,1.0903366,9.760269,-0.02246322,0.009554854,7.2123675E-4,28.40844124,76.94756703,15.41,Good
1763092763349,0.15402889,1.1076696,10.092431,0.0125839515,0.0195417,-0.0011962374,28.40844124,76.94756703,15.41,Good
1763092763451,0.077382356,0.9425305,10.321818,0.030160801,-0.0077823102,0.0019462898,28.40844124,76.94756703,15.41,Good
1763092763552,0.10665393,0.6897199,10.308847,0.009021659,-0.008637058,8.4424927E-4,28.40851657,76.94770779,15.93,Good
1763092763654,0.07671483,0.6522891,10.190286,-0.009544362,-8.504886E-4,-0.0041777072,28.40851657,76.94770779,15.93,Good
1763092763755,0.26049042,0.6513922,9.936848,-0.01862827,-0.00927368,-0.0027142381,28.40851657,76.94770779,15.93,Good
1763092763855,0.23466597,0.62206227,9.775474,-0.0074696336,0.0016452718,-0.0033800278,28.40851657,76.94770779,15.93,Good
1763092763957,0.16265263,0.637497,10.164774,0.03702287,-0.0027781078,-0.0045835217,28.40851657,76.94770779,15.93,Good
1763092764058,0.19830532,0.5649283,10.104876,5.4647407E-4,-0.01095147,-0.0017555009,28.40851657,76.94770779,15.93,Good
1763092764160,0.16834189,0.65803826,9.918879,-0.028440109,-0.0050354525,-0.0037465293,28.40851657,76.94770779,15.93,Good
1763092764262,0.35595062,0.5854039,9.72331,-0.010532266,7.664292E-4,-0.0047648703,28.40851657,76.94770779,15.93,Good
1763092764362,0.18744582,0.6185727,9.813717,-0.006171027,0.0018380338,-0.0041523436,28.40851657,76.94770779,15.93,Good
1763092764464,0.26543576,0.5820388,9.945976,-0.010186056,0.007450958,-0.0058833966,28.40851657,76.94770779,15.93,Good
1763092764563,0.14145264,0.60809255,9.956548,-0.004486897,-0.017449576,-0.001435922,28.40859062,76.94784723,15.99,Good
1763092764665,0.30033275,0.6163569,9.921214,0.0029598025,-1.14949245E-4,-0.0035436216,28.40859062,76.94784723,15.99,Good
1763092764766,0.15290532,0.6624585,10.317617,0.017936902,0.0053470624,-0.0056969756,28.40859062,76.94784723,15.99,Good
1763092764868,0.21756896,0.6222857,9.892887,-0.004649221,0.0135052055,-0.003188534,28.40859062,76.94784723,15.99,Good
1763092764967,0.2665083,0.62854755,10.001642,-0.0026535215,0.010851392,-0.0036477451,28.40859062,76.94784723,15.99,Good
1763092765068,0.036717646,0.56719995,9.89589,7.27822E-4,-0.027659621,0.0018080593,28.40859062,76.94784723,15.99,Good
1763092765170,0.20253149,0.65162593,10.141924,-0.005498897,-0.032496423,0.0013603949,28.40859062,76.94784723,15.99,Good
1763092765271,0.18628898,0.6246914,10.2060175,0.022413544,-0.013050293,-0.0050400635,28.40859062,76.94784723,15.99,Good
1763092765372,0.40693155,0.42962936,10.380607,0.025953008,0.026492544,-0.009079187,28.40859062,76.94784723,15.99,Good
1763092765473,0.299674,0.30925655,10.129022,-0.0138054155,0.011070318,-0.001920363,28.40859062,76.94784723,15.99,Good
1763092765574,0.14936912,1.1082456,9.736371,-0.021797428,0.009421695,-0.0015690799,28.40867151,76.9479908,15.87,Good
1763092765676,0.112347566,0.9531013,9.752033,0.02482307,-0.014698914,-0.0036197118,28.40867151,76.9479908,15.87,Good
1763092765778,0.2361767,0.7999703,10.141664,0.026751956,-0.0033614668,-0.004019186,28.40867151,76.9479908,15.87,Good
1763092765879,0.25925028,1.0474232,10.078058,0.00924993,0.008812973,-0.0073734974,28.40867151,76.9479908,15.87,Good
1763092765980,0.20651838,1.0478454,9.706086,-0.015192796,0.0151208555,-0.004791502,28.40867151,76.9479908,15.87,Good
1763092766082,0.20954412,1.0175996,9.701908,-0.035415046,0.008052071,-0.0023008145,28.40867151,76.9479908,15.87,Good
1763092766185,0.014937152,1.0707735,9.833731,-0.024593746,-0.027383158,0.0037039747,28.40867151,76.9479908,15.87,Good
1763092766285,0.11761762,1.0880266,9.839948,0.026268782,-0.0032092866,-0.004456705,28.40867151,76.9479908,15.87,Good
1763092766387,0.3334217,1.0841768,10.330678,0.03823017,0.048064128,-0.0128076095,28.40867151,76.9479908,15.87,Good
1763092766488,0.24194296,1.0922188,10.339644,0.010771736,0.03891935,-0.005953146,28.40867151,76.9479908,15.87,Good
1763092766590,0.08343644,1.0839486,9.908789,-0.015539005,0.030220965,-0.0039126594,28.40872424,76.94813637,15.68,Good
1763092766691,6.5838394E-4,1.0562266,9.60004,-0.012993787,0.021317137,-0.0064857784,28.40872424,76.94813637,15.68,Good
1763092766791,0.036890004,1.0224504,9.906482,-0.023608377,0.014774645,-0.002847396,28.40872424,76.94813637,15.68,Good
1763092766892,-0.046204586,1.0524081,9.788274,0.009068582,-9.912555E-4,-0.0029006593,28.40872424,76.94813637,15.68,Good
1763092766993,-0.02736871,1.0938356,10.345753,0.013713892,-0.029181426,0.0020109667,28.40872424,76.94813637,15.68,Good
1763092767093,0.03449453,1.075091,10.171302,0.029921114,-0.021923684,-0.0011696061,28.40872424,76.94813637,15.68,Good
1763092767194,-0.025614876,1.0338717,10.185637,0.010932793,-0.0404859,0.0022925003,28.40872424,76.94813637,15.68,Good
1763092767293,0.15043569,1.1262944,9.991402,0.0143949,-0.019633368,-0.0011429745,28.40872424,76.94813637,15.68,Good
1763092767396,0.15558596,0.9976572,10.168488,-0.0031527802,0.004957734,-0.0052176076,28.40872424,76.94813637,15.68,Good
1763092767496,0.23640484,1.0638152,10.024798,-0.0046466864,0.012377801,-0.0026077118,28.40872424,76.94813637,15.68,Good
1763092767597,0.08821313,1.0500582,9.715742,-0.008481635,0.012111486,-0.0012495009,28.40879566,76.948279,15.9,Good
1763092767697,0.057970203,0.9775951,9.53692,-0.024737049,0.0038671072,0.001554425,28.40879566,76.948279,15.9,Good
1763092767798,-0.047573436,0.9802016,9.344882,-0.043715224,-0.025092842,0.0038371326,28.40879566,76.948279,15.9,Good
1763092767898,-0.009043296,1.0289781,9.619444,-0.0030754218,-0.031351265,7.744999E-4,28.40879566,76.948279,15.9,Good
1763092768000,0.15624471,1.030116,10.356832,0.023986077,-0.01756498,-7.53646E-4,28.40879566,76.948279,15.9,Good
1763092768100,0.1890086,1.1065916,10.330279,0.025819851,5.267448E-4,-0.0022881327,28.40879566,76.948279,15.9,Good
1763092768202,0.18067859,1.0711983,10.109918,-8.193464E-4,0.004146104,-0.0031631708,28.40879566,76.948279,15.9,Good
1763092768304,0.15957843,1.0202403,9.90685,-0.005578792,0.010220643,-0.0026077118,28.40879566,76.948279,15.9,Good
1763092768405,0.13264924,1.0265228,9.747242,8.292756E-4,0.023828115,-0.003746529,28.40879566,76.948279,15.9,Good
1763092768509,0.09626936,1.0457921,10.152557,0.0040618423,0.049049497,-0.005057818,28.40879566,76.948279,15.9,Good
1763092768608,-0.042858988,1.0636482,9.916515,0.0033694217,0.0073976945,0.0024256585,28.40886691,76.94841864,16.03,Good
1763092768709,-0.05659356,0.98088884,9.738619,-0.01821865,-0.011071946,0.007717735,28.40886691,76.94841864,16.03,Good
1763092768809,-0.092287645,1.0507361,9.751695,-0.010558899,-0.0066904156,0.0021593426,28.40886691,76.94841864,16.03,Good
1763092768909,-0.094442114,1.044429,10.122973,0.0021177374,-0.028927792,0.0064203967,28.40886691,76.94841864,16.03,Good
1763092769011,-0.05827038,1.0388594,10.02913,-5.844373E-5,-0.019619416,0.0063734744,28.40886691,76.94841864,16.03,Good
1763092769111,0.06484296,1.0671803,9.931204,0.01708469,-0.010498732,0.002319132,28.40886691,76.94841864,16.03,Good
1763092769214,0.078990534,1.0380809,10.18825,0.0073984014,0.00774771,0.0024167814,28.40886691,76.94841864,16.03,Good
1763092769315,0.09820855,1.0986067,10.076016,0.005313528,0.017863909,0.0022925006,28.40886691,76.94841864,16.03,Good
1763092769416,0.040064007,0.98088884,9.8969,0.0016916322,0.022179494,0.0016305152,28.40886691,76.94841864,16.03,Good
1763092769516,-0.0894715,0.96430016,9.767304,-0.017216794,-0.012629259,0.007698713,28.40894263,76.94856635,16.41,Good
1763092769618,-0.12719458,0.87229097,9.756562,-0.015299321,-0.01816863,0.0082047125,28.40894263,76.94856635,16.41,Good
1763092769719,-0.08647715,0.8188946,10.072129,-0.00388832,-0.016169991,0.006221294,28.40894263,76.94856635,16.41,Good
1763092769818,0.019423462,0.86505723,10.115632,0.014847637,-0.0052789412,0.0027985007,28.40894263,76.94856635,16.41,Good
1763092769921,0.05593989,0.73757106,10.141164,0.0015052108,-0.0068768365,0.0045561856,28.40894263,76.94856635,16.41,Good
1763092770021,0.11456338,0.76266074,9.975411,-0.0067797494,-0.0014592106,0.003684952,28.40894263,76.94856635,16.41,Good
1763092770122,-0.028409604,0.7322696,9.975349,-0.0010780528,-0.016916946,0.0066068177,28.40894263,76.94856635,16.41,Good
1763092770225,0.010958949,0.7400834,10.011583,0.0022749908,-0.014521371,0.0068300157,28.40894263,76.94856635,16.41,Good
1763092770326,0.054120336,0.6809379,9.959151,8.1278954E-4,-0.011563997,0.004023554,28.40894263,76.94856635,16.41,Good
1763092770428,0.141885,0.7508338,10.09863,-0.0036080542,-0.017156629,0.005541554,28.40894263,76.94856635,16.41,Good
1763092770528,-0.04805892,0.7347666,9.850961,0.0033148907,-0.01540909,0.0059169326,28.40902074,76.94871911,16.87,Good
1763092770628,0.122408584,0.6507919,10.052127,5.464735E-4,-0.01212326,0.0063671335,28.40902074,76.94871911,16.87,Good
1763092770727,0.14869896,0.69528794,9.952235,-0.0057918443,-0.0045066252,0.0055948175,28.40902074,76.94871911,16.87,Good
1763092770829,0.18972152,0.65294784,10.022722,0.015134243,0.012363852,0.0018334226,28.40902074,76.94871911,16.87,Good
1763092770930,0.16705003,0.6119823,10.217349,-0.0030221592,0.013789276,0.0032512378,28.40902074,76.94871911,16.87,Good
1763092771032,0.06910919,0.5788677,10.094527,0.008869479,0.0038417438,0.00596766,28.40902074,76.94871911,16.87,Good
1763092771133,0.042257003,0.5929896,10.068145,-0.0030221588,0.0073444312,0.004076817,28.40902074,76.94871911,16.87,Good
1763092771232,0.08677584,0.461609,9.820364,-0.015219426,0.018982435,0.0015201845,28.40902074,76.94871911,16.87,Good
1763092771334,-0.015451208,0.39657176,9.368338,-0.04738658,8.7422354E-4,0.007286557,28.40902074,76.94871911,16.87,Good
1763092771436,0.008378109,0.4178345,9.458896,-0.03458059,0.016798645,0.0064203967,28.40902074,76.94871911,16.87,Good
1763092771545,-0.07180484,0.50329036,10.234543,0.011431184,-0.005111543,0.0075655547,28.40907713,76.94884956,16.57,Good
1763092771646,-0.112054326,0.5828529,10.594632,0.052122176,-0.021325683,0.0154824,28.40907713,76.94884956,16.57,Good
1763092771746,-0.17409179,0.5641355,10.867608,0.046352804,-0.0022695719,0.01688661,28.40907713,76.94884956,16.57,Good
1763092771847,0.007636654,0.51353955,10.167158,0.016365636,0.02428212,0.014436505,28.40907713,76.94884956,16.57,Good
1763092771948,-0.054737054,0.48209032,9.898277,-0.019385368,0.04543775,0.016315933,28.40907713,76.94884956,16.57,Good
1763092772048,-0.38830745,0.62641793,10.267241,-0.0013177369,0.006731905,0.020162297,28.40907713,76.94884956,16.57,Good
1763092772149,-0.2213597,0.5717155,9.778976,0.018070057,0.0069715884,0.0170464,28.40907713,76.94884956,16.57,Good
1763092772251,-0.33692443,0.5965942,10.224781,-0.003609322,-0.034431655,0.024026413,28.40907713,76.94884956,16.57,Good
1763092772353,-0.32117128,0.68458813,10.227502,0.024568167,-0.032842636,0.019416612,28.40907713,76.94884956,16.57,Good
1763092772454,-0.14875957,0.47628132,9.702387,-0.021515895,-0.022206485,0.01740656,28.40907713,76.94884956,16.57,Good
1763092772552,0.025631266,0.70702577,9.872107,-0.009706688,0.032404754,0.014463136,28.4091642,76.94899342,16.22,Good
1763092772652,-0.1077969,0.63635916,9.907559,0.004594475,0.025480542,0.016061032,28.4091642,76.94899342,16.22,Good
1763092772753,-0.067935,0.54542226,10.013734,-0.013461742,0.013043592,0.019310085,28.4091642,76.94899342,16.22,Good
1763092772855,-0.16319233,0.74188,9.696638,0.008996297,0.036687367,0.010380895,28.4091642,76.94899342,16.22,Good
1763092772957,-0.2793645,0.4327777,9.236515,-0.07237081,-0.058009487,0.025648402,28.4091642,76.94899342,16.22,Good
1763092773059,-0.17972115,0.69888115,9.486015,-0.08084092,-0.017590344,0.006956833,28.4091642,76.94899342,16.22,Good
1763092773161,0.099691465,0.7454447,10.600341,0.06699228,-0.004693046,-0.0059100287,28.4091642,76.94899342,16.22,Good
1763092773261,0.3702807,0.7602054,10.306586,0.082930654,0.020023605,-0.0029856265,28.4091642,76.94899342,16.22,Good
1763092773361,0.042519383,0.94819057,10.700763,0.034102276,0.02159233,-0.001808764,28.4091642,76.94899342,16.22,Good
1763092773462,0.12752464,0.8633935,10.015787,-0.017057005,0.03679897,-0.0011163427,28.4091642,76.94899342,16.22,Good
1763092773564,0.042699046,0.7228958,9.390915,-0.029074192,0.0118819475,0.0050038495,28.40925088,76.94913999,16.65,Good
1763092773665,-0.17681521,0.7668329,9.611407,-0.025872061,-0.032017056,0.010654819,28.40925088,76.94913999,16.65,Good
1763092773769,-0.04258,0.9035149,10.0630865,-0.002823056,-0.020202776,0.003253774,28.40925088,76.94913999,16.65,Good
1763092773868,0.0885696,0.84862137,10.1453705,0.0133829,-0.01281568,2.9513135E-4,28.40925088,76.94913999,16.65,Good
1763092773970,0.15864019,0.881237,9.969243,0.010797098,-0.006709438,2.8625425E-4,28.40925088,76.94913999,16.65,Good
1763092774070,0.12893626,0.8485387,9.960859,-0.007682687,-0.014413576,0.0023457636,28.40925088,76.94913999,16.65,Good
1763092774170,0.027427861,0.80670047,9.642434,-0.027922694,-0.020405684,0.0037039747,28.40925088,76.94913999,16.65,Good
1763092774272,0.10785604,0.7714641,9.99715,-0.0022396983,-0.015510543,0.0021885105,28.40925088,76.94913999,16.65,Good
1763092774372,0.23020512,0.8178765,10.53775,0.042544488,0.017917173,-0.0055371863,28.40925088,76.94913999,16.65,Good
1763092774472,0.20412292,0.8250088,10.398094,0.03972154,-0.004719678,-0.002660975,28.40925088,76.94913999,16.65,Good
1763092774571,0.15624471,0.80452174,10.175554,-0.0017172114,-0.0079421,9.875526E-4,28.4093311,76.94928863,16.34,Good
1763092774674,0.08671596,0.6842088,9.904566,-0.03008873,0.01249067,-0.0018189095,28.4093311,76.94928863,16.34,Good
1763092774774,0.1633998,0.67095673,9.641864,-0.009440373,0.018982437,-0.0029539224,28.4093311,76.94928863,16.34,Good
1763092774877,0.16989894,0.71948224,10.148126,0.013155896,0.0037149268,-0.0016920922,28.4093311,76.94928863,16.34,Good
1763092774978,0.19374251,0.72639495,9.887686,0.008056583,0.007903695,-0.0048447647,28.4093311,76.94928863,16.34,Good
1763092775078,0.12582214,0.6589964,10.144053,-0.003954263,0.0032165353,-0.003300133,28.4093311,76.94928863,16.34,Good
1763092775180,0.06401879,0.70301336,10.164954,0.005876596,-0.01926433,6.413421E-4,28.4093311,76.94928863,16.34,Good
1763092775280,0.1903204,0.70517784,10.098659,2.8015705E-4,-2.455713E-4,-0.0025544486,28.4093311,76.94928863,16.34,Good
1763092775379,0.24248195,0.74337715,10.221547,0.009388161,0.012750644,-0.00710845,28.4093311,76.94928863,16.34,Good
1763092775482,0.1467928,0.66003937,9.717982,-0.0036080536,0.0070514837,-0.003300133,28.4093311,76.94928863,16.34,Good
1763092775583,0.059328627,0.62667793,9.6115885,-0.031509083,-0.0011548495,-4.746485E-4,28.40942004,76.94943052,16.42,Good
1763092775684,0.17750458,0.70445067,9.892288,-0.0143887745,0.0023960287,-0.0027827194,28.40942004,76.94943052,16.42,Good
1763092775785,0.1250151,0.70751625,10.181816,0.024221955,-0.008155152,-0.0028207644,28.40942004,76.94943052,16.42,Good
1763092775888,0.016947642,0.7603252,10.303772,0.024975248,-0.012999565,-6.014656E-4,28.40942004,76.94943052,16.42,Good
1763092775989,0.085318595,0.8274613,10.342484,0.028962377,-0.038168952,0.003730606,28.40942004,76.94943052,16.42,Good
1763092776091,0.2105622,0.7999104,10.136448,-0.0026201494,-0.010133499,5.798352E-5,28.40942004,76.94943052,16.42,Good
1763092776192,0.19716462,0.85506636,9.911127,-0.00422058,0.017863909,-0.0020218168,28.40942004,76.94943052,16.42,Good
1763092776293,0.12678033,0.8506347,9.499909,-0.011142258,0.008965154,0.0014529714,28.40942004,76.94943052,16.42,Good
1763092776395,0.098950006,0.8231266,9.815422,-0.025659008,7.930612E-4,0.001546816,28.40942004,76.94943052,16.42,Good
1763092776497,-0.03209978,0.7748178,9.717239,-0.026867576,-0.034203384,0.0056125717,28.40942004,76.94943052,16.42,Good
1763092776598,0.074196726,0.89635986,9.68002,0.0013720532,-0.027356528,0.0031180799,28.40949943,76.94956951,16.3,Good
1763092776700,0.104921594,0.8852494,10.5313425,0.023960711,-0.025148643,-8.297362E-4,28.40949943,76.94956951,16.3,Good
1763092776799,0.40333834,0.9788527,10.4575615,0.056099966,0.033869494,-0.004445291,28.40949943,76.94956951,16.3,Good
1763092776901,0.26737496,0.9349156,10.618421,0.04906923,0.0413796,-0.005563818,28.40949943,76.94956951,16.3,Good
1763092777002,0.18732606,0.8430291,9.79599,-0.034349784,0.025020197,-0.0022754509,28.40949943,76.94956951,16.3,Good
1763092777104,0.060394213,0.73814416,8.951567,-0.07676502,0.02476149,0.0021060794,28.40949943,76.94956951,16.3,Good
1763092777205,-0.038747225,0.6760642,9.047463,-0.04761485,0.016751723,7.6815905E-4,28.40949943,76.94956951,16.3,Good
1763092777304,-0.11548288,0.73850584,9.694671,-0.029761674,-0.02461067,0.0071170228,28.40949943,76.94956951,16.3,Good
1763092777406,0.05208376,0.7380385,10.55529,0.044175357,0.0047801905,-0.0020218168,28.40949943,76.94956951,16.3,Good
1763092777506,0.1556781,0.810535,10.835023,0.045154385,0.0153072765,-0.0057236073,28.40949943,76.94956951,16.3,Good
1763092777607,0.07890145,0.6658235,10.041139,-0.00604421,-0.0038433722,0.0018080593,28.40958005,76.94970963,16.34,Good
1763092777708,0.026686408,0.63679266,9.83681,-0.022117008,0.0098478,-3.4402666E-4,28.40958005,76.94970963,16.34,Good
1763092777807,0.03910582,0.63126874,9.555365,-0.005525528,-0.022962315,0.00362408,28.40958005,76.94970963,16.34,Good
1763092777909,-0.0301834,0.51934004,9.878215,-0.0021128799,-0.04346103,0.0052828477,28.40958005,76.94970963,16.34,Good
1763092778011,-0.09639557,0.6836755,10.386288,-0.008055529,-0.0577698,0.0066068177,28.40958005,76.94970963,16.34,Good
1763092778112,0.31195083,0.640671,9.741254,0.0022242647,0.017740896,-7.0291903E-4,28.40958005,76.94970963,16.34,Good
1763092778214,0.2893335,0.553179,10.158032,-0.0149797425,0.024681596,-0.0039925543,28.40958005,76.94970963,16.34,Good
1763092778315,0.17247409,0.6212078,9.839528,0.011862361,0.014671923,0.0031015933,28.40958005,76.94970963,16.34,Good
1763092778414,-0.08174607,0.65576255,10.303533,0.014528058,-0.011111259,0.002185974,28.40958005,76.94970963,16.34,Good
1763092778515,0.09296131,0.6321157,10.050293,0.010586582,-0.020778526,0.005488291,28.40958005,76.94970963,16.34,Good
1763092778618,0.1321278,0.53845423,10.164359,0.007763633,0.00950159,-0.0019152903,28.4096688,76.94985959,16.45,Good
1763092778719,0.012879706,0.6264442,9.957997,0.0103405565,-0.030753957,0.00500385,28.4096688,76.94985959,16.45,Good
1763092778821,0.25020736,0.6639671,10.224661,-0.010153083,-0.0023469306,0.0046994886,28.4096688,76.94985959,16.45,Good
1763092778920,0.0985911,0.65746856,9.865567,0.016685216,-0.005545258,0.0012805001,28.4096688,76.94985959,16.45,Good
1763092779022,0.18482833,0.6315857,10.196377,0.0014253157,0.011658749,-5.107926E-5,28.4096688,76.94985959,16.45,Good
1763092779123,0.06647416,0.6661829,10.325151,-0.015251132,-0.016220719,0.008833726,28.4096688,76.94985959,16.45,Good
1763092779223,0.0759217,0.50789726,9.347501,-0.011231695,0.01214092,0.003192368,28.4096688,76.94985959,16.45,Good
1763092779323,0.10642022,0.7285734,9.655642,-0.021338351,-0.016804079,0.0060944767,28.4096688,76.94985959,16.45,Good
1763092779423,0.10887412,0.8296743,10.407316,0.02496764,0.010460327,-4.239215E-4,28.4096688,76.94985959,16.45,Good
1763092779527,0.08001154,0.7414856,10.475071,0.054209124,-0.019606736,0.004769238,28.40973332,76.94999883,16.19,Good
1763092779629,0.09800684,0.8225813,10.613833,0.037547436,8.7537646E-4,0.0013434475,28.40973332,76.94999883,16.19,Good
1763092779733,0.22277343,0.83955276,10.057308,0.0024639475,0.009022221,0.001999553,28.40973332,76.94999883,16.19,Good
1763092779831,0.1591193,0.74876696,9.538417,-0.030215545,0.022940397,0.0042683105,28.40973332,76.94999883,16.19,Good
1763092779931,-0.06198336,0.69522804,9.145558,-0.060546387,-0.01617126,0.007032923,28.40973332,76.94999883,16.19,Good
1763092780031,0.05069822,0.71966475,9.208682,-0.05724407,-0.019633368,0.009323239,28.40973332,76.94999883,16.19,Good
1763092780133,0.051148932,0.7718673,9.997436,-0.0010247903,-0.020645367,0.0051953434,28.40973332,76.94999883,16.19,Good
1763092780235,0.17466216,0.85798764,10.753004,0.05049085,-0.02015205,0.0023153275,28.40973332,76.94999883,16.19,Good
1763092780336,0.38141972,0.9274697,10.856888,0.06664734,0.0015083095,-0.0018442727,28.40973332,76.94999883,16.19,Good
1763092780439,0.2511199,0.7890766,10.473722,0.015779741,0.018290013,-0.0041789752,28.40973332,76.94999883,16.19,Good
1763092780539,0.15199274,0.77493757,9.760657,-0.02630958,-0.0076732477,0.001731969,28.4098204,76.95013292,16.31,Good
1763092780641,0.3903999,0.6464886,8.890939,-0.061984494,0.021698857,-0.0024745537,28.4098204,76.95013292,16.31,Good
1763092780741,0.09498035,0.67552525,9.098666,-0.050266594,-0.0011244136,-0.0025011853,28.4098204,76.95013292,16.31,Good
1763092780842,0.17750457,0.8236257,9.808926,-0.009316091,-0.009423324,-9.0582645E-4,28.4098204,76.95013292,16.31,Good
1763092780942,0.27614865,0.76397973,10.206134,0.027257957,-0.01414726,-0.0020218168,28.4098204,76.95013292,16.31,Good
1763092781043,0.23361428,0.7813908,10.555057,0.026405746,-0.021870421,-0.0024479222,28.4098204,76.95013292,16.31,Good
1763092781144,0.31219035,0.8662652,10.608237,0.044251446,-6.9830805E-4,-0.0050654267,28.4098204,76.95013292,16.31,Good
1763092781243,0.37567055,0.80949235,10.131896,0.015833007,0.0050807465,-0.0036463432,28.4098204,76.95013292,16.31,Good
1763092781345,0.27650058,0.70877105,9.317677,-0.046218596,0.010913065,-0.0014092904,28.4098204,76.95013292,16.31,Good
1763092781447,0.20223935,0.7657325,9.695488,-0.042543437,-0.008128521,-0.001116343,28.4098204,76.95013292,16.31,Good
1763092781548,0.18780515,0.7711048,10.056798,0.015673215,-0.036358006,-0.0012761324,28.40989077,76.95026799,16.22,Good
1763092781650,0.2565174,0.85091805,10.323571,0.038927432,-0.018371997,-0.0032323436,28.40989077,76.95026799,16.22,Good
1763092781751,0.40540016,0.83692914,10.333473,0.011012687,0.001378956,-0.0037795014,28.40989077,76.95026799,16.22,Good
1763092781853,0.4388513,0.74972516,9.900193,-0.01849765,0.017005358,-0.0049893367,28.40989077,76.95026799,16.22,Good
1763092781954,0.28665286,0.77715623,9.880499,0.0045412118,0.021592332,-0.0028207644,28.40989077,76.95026799,16.22,Good
1763092782056,0.20559159,0.7867952,10.028292,0.0047606057,0.003943197,-0.002529085,28.40989077,76.95026799,16.22,Good
1763092782157,0.30330715,0.8470814,10.031871,0.0053135282,0.014934434,-0.006416029,28.40989077,76.95026799,16.22,Good
1763092782260,0.25547743,0.80536014,10.180584,0.014829882,1.3868461E-4,-0.006358961,28.40989077,76.95026799,16.22,Good
1763092782360,0.31967625,0.83744246,10.110408,0.004887422,-0.0022962035,-0.0075878184,28.40989077,76.95026799,16.22,Good
1763092782462,0.27281836,0.8298262,10.0371065,-0.0050727916,-0.023974316,-0.0060698176,28.40989077,76.95026799,16.22,Good
1763092782563,0.2697802,0.8905311,10.271922,0.015565421,-0.028369796,-0.0067394124,28.40997089,76.9504136,16.37,Good
1763092782666,0.38453382,0.8349443,10.165433,0.032356,-0.030601777,-0.008032946,28.40997089,76.9504136,16.37,Good
1763092782767,0.41435468,0.82786053,9.883465,-0.009999635,-0.026477685,-0.0072149765,28.40997089,76.9504136,16.37,Good
1763092782868,0.526945,0.7900291,9.357977,-0.06476052,-0.0011041225,-0.007830039,28.40997089,76.9504136,16.37,Good
1763092782970,0.41880342,0.76529294,9.133908,-0.047097437,-0.00392073,-0.007241608,28.40997089,76.9504136,16.37,Good
1763092783071,0.3869293,0.78020763,9.670407,-0.014414137,-0.02060859,-0.0042537977,28.40997089,76.9504136,16.37,Good
1763092783173,0.46905145,0.9102194,10.153698,0.024621429,-0.011430838,-0.009212345,28.40997089,76.9504136,16.37,Good
1763092783272,0.5436535,0.878542,10.499722,0.03500775,-0.006583889,-0.010863503,28.40997089,76.9504136,16.37,Good
